timestamp_us,ax,ay,az,gx,gy,gz
5324710,1172,-2220,-14308,836,830,8367
5329810,1220,-1884,-6464,-737,2514,8715
5334610,976,680,-14612,-1305,1064,8787
5339410,496,68,-13568,-698,-55,8830
5345312,1052,256,-18284,558,702,8784
5350112,2468,-1492,-12228,35,-141,8710
5354912,1628,-1100,-13224,-552,95,8750
5359812,508,-644,-11852,-1184,-200,8615
5364612,844,-332,-14096,-167,488,8431
5452119,1044,-68,-13536,63,380,3915
5485218,976,-452,-13116,325,201,3487
5490212,992,-908,-12896,182,544,3587
5495012,752,-708,-13556,88,737,3695
5499812,1204,-772,-13092,-88,899,3761
5504612,1252,-196,-13920,-765,798,3859
5509412,1236,-928,-14144,-1021,606,4050
5515312,1416,-772,-14508,-1161,120,4252
5520212,1424,-992,-13700,-1235,-139,4403
5525012,380,-1020,-13164,-16,-522,4478
5548812,1160,-1008,-14476,-502,-111,4706
5630410,1052,-88,-13652,-10,248,3826
5635310,1112,-404,-13220,-84,327,3740
5640112,1032,-356,-13336,-120,319,3674
5644912,888,-196,-13696,26,358,3602
5649712,1208,-344,-13500,35,333,3549
5654612,1312,-400,-13400,174,386,3437
5659412,1112,-188,-13564,60,323,2344
5742912,980,-300,-13352,-26,350,2293
5744410,980,-300,-13352,-26,350,2293
5749412,1012,-220,-13296,12,388,2185
5755312,1224,-496,-13544,561,331,2045
5760112,1140,-912,-13716,-182,246,1996
5764912,1076,148,-13712,-309,362,1984
5769712,972,-300,-13944,115,403,1869
5774612,1000,-480,-12740,48,342,1849
5779412,1064,-448,-13392,-9,331,1808
5785312,936,-272,-13636,-35,357,1731
5790112,1192,-228,-14008,135,375,1672
5794912,1208,-348,-13340,67,299,1598
5799712,1132,-372,-13604,32,290,1516
5874910,1208,-252,-13460,129,355,458
5879810,1044,-388,-13628,65,303,371
5884612,1160,-240,-13564,117,340,297
5889412,908,-276,-13456,92,349,234
5977410,1056,-444,-13504,107,298,98
5989612,1188,-304,-13388,112,396,109
5994412,1156,-436,-13452,107,340,90
6000312,956,-360,-13544,138,269,87
6005112,856,-432,-13540,68,329,96
6009912,1016,-432,-13328,119,374,107
6014712,1080,-428,-13472,112,401,101
6019512,1108,-408,-13656,118,345,101
6025412,1092,-372,-13576,122,273,111
6030312,1068,-316,-13448,100,301,109
6035112,1032,-320,-13488,116,372,111
6039912,992,-360,-13380,101,378,96
6044712,1048,-380,-13660,88,301,94
6049512,1172,-496,-13444,112,319,132
6055412,1088,-456,-13404,103,321,88
6060212,984,-452,-13552,97,356,105
6133110,1000,-436,-13556,117,348,96
6134711,1000,-436,-13556,117,348,96
6219812,1032,-344,-13628,124,276,98
6224712,916,-388,-13360,122,324,100
6229612,1064,-404,-13380,77,366,90
6234412,1104,-388,-13636,133,339,103
6240312,1036,-416,-13468,86,320,111
6245112,1100,-396,-13500,108,349,101
6249912,1116,-416,-13600,91,354,116
6254712,1088,-320,-13584,113,313,84
6259512,1024,-444,-13452,104,327,90
6265412,1052,-436,-13504,121,317,102
6270312,1104,-316,-13680,105,316,83
6275112,1120,-364,-13620,91,381,97
6279912,1032,-476,-13696,126,285,108
6284712,1080,-432,-13424,93,316,95
6289512,1112,-536,-13512,103,355,106
6295412,1112,-444,-13576,120,319,89
6379012,1112,-444,-13576,120,319,89
6380512,1112,-444,-13576,120,319,89
6455112,1084,-408,-13516,102,353,122
6472012,1136,-436,-13504,107,335,99
6474612,1028,-508,-13416,115,359,88
6479412,1036,-484,-13520,120,344,87
6485312,1000,-404,-13512,108,330,95
6490112,1080,-444,-13428,69,307,110
6495012,1120,-472,-13256,90,328,106
6499812,1008,-592,-13504,77,351,103
6504612,1148,-476,-13488,106,311,106
6509412,952,-492,-13400,88,334,109
6515312,996,-340,-13516,112,344,98
6520112,1132,-536,-13564,116,337,115
6524912,1020,-380,-13632,114,329,82
6548812,1024,-496,-13400,100,371,97
6550321,1024,-496,-13400,100,371,97
6555412,1164,-448,-13644,149,328,98
6560212,1084,-304,-13432,107,233,112
6647010,1132,-472,-13676,108,323,99
6649610,1048,-440,-13604,120,315,111
6654412,1028,-392,-13440,136,293,110
6727510,1092,-456,-13648,98,347,100
6730110,1092,-456,-13648,98,347,100
6734912,1016,-472,-13560,117,353,101
6739712,1048,-504,-13572,107,333,105
6744512,1148,-512,-13608,126,318,101
6750412,1080,-476,-13488,92,312,98
6755212,984,-460,-13716,95,347,82
6760012,1028,-356,-13368,101,321,98
6764912,1088,-440,-13500,109,353,98
6769712,1092,-452,-13472,110,342,108
6774512,996,-472,-13512,117,337,92
6780412,1004,-336,-13552,110,313,94
6785212,1108,-460,-13580,103,309,107
6790012,1108,-352,-13380,88,343,118
6794812,1100,-428,-13664,88,321,90
6878812,1100,-428,-13664,88,321,90
6880412,1100,-428,-13664,88,321,90
6885212,1044,-396,-13484,92,350,100
6890012,1048,-428,-13528,97,354,102
6894912,1020,-340,-13588,139,333,101
6967610,1224,-508,-13828,145,346,107
6988410,1220,320,-14892,617,-544,168
6989910,1220,320,-14892,617,-544,168
6994710,1332,-1736,-11324,346,-314,196
6999512,336,-308,-12588,-685,663,255
7005412,-32,528,-15700,671,637,141
7010212,2164,-816,-13104,377,94,159
7015112,1948,-600,-15752,25,16,125
7019912,748,-60,-11924,529,-566,153
7024712,884,-720,-12408,108,457,165
7029512,816,-24,-12880,-265,1142,142
7035412,1404,-368,-15336,248,631,67
7040212,1348,-452,-13460,164,121,114
7045012,1164,-352,-14204,256,-248,107
7130512,1100,-428,-13288,131,324,87
7134412,1068,-404,-13572,141,323,115
7140312,1012,-408,-13452,97,358,95
7145112,1132,-424,-13688,101,362,92
7149912,1152,-408,-13488,127,310,94
7154712,1112,-448,-13384,134,309,107
7228511,1088,-456,-13444,89,310,102
7230111,1088,-456,-13444,89,310,102
7235111,956,-308,-13624,114,352,107
7239911,1052,-436,-13672,97,343,92
7244711,1028,-472,-13504,120,298,98
7249611,1120,-416,-13652,100,307,90
7254411,1096,-400,-13488,119,332,109
7260311,1032,-344,-13356,93,361,78
7265111,1124,-400,-13536,91,341,100
7269911,1052,-344,-13636,94,345,98
7274711,1032,-320,-13528,97,339,76
7279511,1100,-512,-13456,84,353,100
7363614,1140,-400,-13712,94,305,101
7365214,1140,-400,-13712,94,305,101
7370012,1016,-288,-13580,95,323,111
7374812,1032,-540,-13636,118,347,78
7379612,1288,-556,-13012,169,331,107
7384412,1008,-456,-13892,113,345,87
7390312,936,-524,-12944,-1,349,122
7395112,1272,-404,-14088,251,384,95
7467610,1072,-420,-13596,93,335,82
7481110,1064,-396,-13528,105,322,89
7484810,988,-424,-13460,100,357,103
7489612,1088,-428,-13568,77,343,98
7494412,1124,-452,-13608,131,322,116
7500312,1032,-404,-13408,132,310,78
7505112,1028,-432,-13444,118,352,98
7509912,1084,-384,-13452,118,357,116
7514712,1124,-420,-13496,94,322,106
7519612,1024,-340,-13640,106,311,90
7632112,944,-396,-13460,120,337,108
7635012,940,-404,-13496,87,330,89
7639812,1104,-468,-13504,111,358,105
7644612,1028,-460,-13544,102,352,89
7649412,1100,-556,-13612,94,318,100
7655312,1172,-360,-13496,86,335,116
7660112,1060,-300,-13540,102,353,93
7665012,1152,-380,-13568,131,311,128
7669812,1164,-384,-13588,115,331,98
7674612,1064,-412,-13640,112,364,88
7747511,1108,-436,-13240,118,325,104
7750311,1076,-464,-13596,97,339,89
7755111,1132,-420,-13632,111,310,91
7759911,1028,-348,-13552,94,340,113
7764711,1012,-492,-13496,124,360,109
7769611,1116,-384,-13416,116,321,84
7774411,1096,-464,-13632,114,324,108
7780311,1044,-412,-13500,105,318,98
7863610,1108,-448,-13472,93,349,108
7865212,1108,-448,-13472,93,349,108
7870012,1120,-396,-13428,113,323,115
7874812,1076,-340,-13532,113,299,86
7879612,988,-428,-13544,94,326,105
7884412,1004,-264,-13560,110,335,92
7890312,1016,-368,-13548,131,343,117
7895212,1188,-420,-13412,111,338,113
7900012,1056,-336,-13584,126,274,88
7904812,1120,-524,-13476,110,318,103
7909612,1092,-396,-13680,83,353,106
7914412,976,-460,-13460,106,341,102
7987610,1120,-432,-13452,93,343,83
8015112,1096,-368,-13644,95,351,107
8019912,1180,-396,-13560,113,333,88
8024712,1056,-456,-13284,118,330,85
8029612,1124,-512,-13600,103,319,121
8034412,1104,-440,-13548,111,303,79
8122312,1068,-344,-13448,112,354,105
8125268,1000,-440,-13432,102,348,92
8130112,1032,-320,-13432,115,311,100
8134912,1084,-500,-13592,103,318,100
8139712,992,-472,-13488,108,318,90
8144512,1088,-404,-13660,85,365,72
8150412,1112,-400,-13588,123,356,92
8155312,1120,-392,-13324,121,307,92
8160112,1064,-472,-13668,101,311,111
8164912,1052,-428,-13304,89,318,112
8169712,1164,-284,-13548,91,370,71
8174512,928,-404,-13560,108,320,86
8180412,1136,-452,-13560,98,320,91
8185212,1076,-340,-13436,131,336,116
8258010,1064,-304,-13636,151,341,85
8259611,1064,-304,-13636,151,341,85
8264411,1044,-440,-13544,83,275,88
8270311,1056,-416,-13508,96,316,101
8355110,1056,-416,-13508,96,316,101
8360112,1076,-456,-13480,109,318,111
8364912,1080,-380,-13664,115,337,105
8369812,1132,-448,-13552,128,340,88
8374612,1004,-464,-13616,120,329,103
8379412,960,-412,-13556,92,333,111
8385312,1112,-384,-13528,103,350,103
8390112,1092,-440,-13440,98,304,114
8394912,1004,-440,-13600,123,311,102
8399812,1128,-452,-13352,106,282,91
8404612,1156,-352,-13528,90,345,95
8409412,1068,-416,-13528,87,361,106
8415312,1040,-440,-13532,102,332,96
8420112,1160,-344,-13584,124,329,94
8424912,1072,-400,-13480,99,330,90
8434811,1068,-336,-13516,118,308,109
8511212,1216,-488,-13340,107,369,85
8515114,1076,-368,-13364,114,322,114
8599112,1112,-476,-13684,109,306,99
8600612,1112,-476,-13684,109,306,99
8604612,1068,-444,-13468,110,331,111
8626412,1108,-396,-13472,117,327,98
8630312,1064,-444,-13540,109,311,125
8635112,1044,-508,-13564,92,351,99
8639912,1104,-392,-13476,101,367,94
8644712,1108,-484,-13496,95,342,107
8649512,948,-424,-13604,79,330,98
8654412,1148,-432,-13684,107,312,90
8660312,1160,-464,-13408,92,323,89
8665112,972,-544,-13544,105,339,97
8669912,1112,-336,-13556,105,327,72
8674712,1032,-336,-13564,120,343,108
8679512,1032,-456,-13480,115,346,84
8685412,1112,-504,-13552,115,339,90
8690212,1092,-352,-13548,105,335,92
8695112,1072,-496,-13540,106,332,96
8855910,1156,-464,-13520,111,322,108
8859810,1132,-420,-13548,86,333,85
8864712,984,-532,-13584,107,318,100
8869512,996,-436,-13448,101,343,129
8875412,1092,-416,-13648,80,337,119
8880212,1080,-448,-13392,115,341,113
8885012,932,-368,-13660,103,323,108
8889812,1060,-460,-13460,95,322,95
8894612,1056,-408,-13452,95,328,94
8899412,1144,-476,-13524,97,357,104
8905412,1076,-492,-13608,113,310,79
8910212,1160,-388,-13412,133,326,102
8915012,1164,-416,-13540,105,320,80
8919812,1024,-384,-13480,91,356,94
8924612,1100,-380,-13460,108,332,92
8941611,1016,-388,-13472,101,330,109
8945411,1104,-384,-13608,118,366,99
9031012,1004,-408,-13384,76,336,99
9034912,1032,-424,-13708,83,359,90
9039712,1076,-432,-13496,117,337,100
9112412,1036,-536,-13548,104,346,105
9115012,972,-412,-13392,87,318,108
9119812,1160,-436,-13516,115,309,108
9124712,1104,-388,-13592,99,321,91
9129512,1112,-476,-13492,91,328,97
9135412,1128,-412,-13472,120,354,118
9140212,1112,-472,-13504,105,343,92
9145012,1092,-356,-13384,98,335,102
9149812,1196,-464,-13600,119,316,107
9154612,1172,-416,-13532,85,341,100
9159412,1052,-452,-13564,103,347,99
9165412,1016,-500,-13452,119,336,110
9170212,1088,-404,-13460,119,313,87
9175012,1128,-440,-13516,99,315,90
9261512,1016,-440,-13424,104,319,114
9265412,1032,-488,-13472,111,332,97
9270212,996,-416,-13564,118,311,79
9275012,988,-476,-13532,115,313,92
9279912,1008,-352,-13600,82,326,88
9284712,1088,-464,-13580,122,346,90
9357210,1160,-384,-13540,93,337,90
9359810,1172,-560,-13640,109,317,92
9364712,1084,-380,-13544,93,312,87
9369512,1068,-360,-13508,98,336,108
9375412,988,-400,-13384,117,342,80
9380212,1200,-488,-13612,100,319,92
9385012,1092,-456,-13632,113,333,114
9389812,936,-456,-13596,105,346,99
9394612,1008,-412,-13728,97,329,87
9399412,1096,-360,-13508,116,339,107
9405412,996,-376,-13560,97,310,108
9492111,1060,-456,-13676,103,315,103
9504310,1040,-400,-13592,91,318,112
9505810,1040,-400,-13592,91,318,112
9509510,1116,-388,-13440,115,332,92
9515412,1092,-428,-13400,127,322,98
9520212,1092,-408,-13600,101,321,83
9525012,1024,-544,-13680,83,347,97
9529912,1168,-348,-13532,116,340,103
9534712,1120,-428,-13568,109,309,107
9631211,1144,-448,-13480,119,321,76
9635111,964,-416,-13512,102,345,97
9640011,1092,-532,-13572,111,345,131
9644811,1068,-336,-13504,102,334,95
9649611,1032,-484,-13544,117,328,89
9654411,964,-420,-13568,103,330,93
9660311,948,-344,-13560,110,323,101
9665111,1064,-448,-13492,104,315,99
9669911,1036,-328,-13444,101,323,86
9674711,1196,-396,-13528,118,364,117
9758219,1196,-396,-13528,118,364,117
9759822,1108,-348,-13576,112,322,94
9764612,1044,-500,-13712,107,321,89
9769412,1016,-332,-13584,89,347,112
9775412,1088,-488,-13564,114,337,95
9780212,1044,-436,-13608,104,336,108
9785012,1064,-476,-13628,97,316,85
9789812,1136,-404,-13728,80,349,96
9794612,1036,-352,-13616,91,329,121
9799412,1064,-380,-13504,113,331,101
9872311,1080,-384,-13348,118,331,110
9875111,1032,-348,-13476,93,335,110
9880011,1068,-384,-13632,101,362,105
9884811,1092,-444,-13572,114,339,109
9889611,1104,-288,-13552,115,319,101
9894411,1072,-424,-13580,96,291,98
9900311,1020,-452,-13532,87,337,94
9905111,1064,-388,-13444,102,354,96
9989812,1148,-492,-13444,119,343,95
10003410,1096,-388,-13472,113,321,110
10004910,1096,-388,-13472,113,321,110
10009812,1132,-456,-13544,105,330,94
10014612,1128,-460,-13544,108,359,112
10019412,1032,-404,-13704,91,348,95
10025312,1024,-356,-13388,115,350,109
10030112,1184,-532,-13444,115,318,111
10034912,1056,-320,-13552,97,320,107
10039812,1016,-420,-13564,99,327,100
10044612,1112,-464,-13592,104,347,89
10049412,1080,-472,-13476,100,326,109
10123710,1052,-436,-13404,105,329,106
10125210,1052,-436,-13404,105,329,106
10130112,1012,-404,-13500,114,337,102
10134912,1100,-460,-13492,99,333,98
10139812,1036,-464,-13576,97,293,119
10144612,1044,-412,-13496,85,354,102
10149412,1072,-400,-13588,113,351,98
10240810,1112,-572,-13352,125,317,99
10244711,996,-428,-13532,123,335,105
10249511,984,-372,-13388,104,317,100
10255411,1176,-484,-13456,130,324,92
10260211,1000,-360,-13532,112,310,97
10265011,1120,-328,-13648,115,322,119
10269811,1048,-380,-13524,105,328,90
10274611,1156,-468,-13444,112,336,108
10279411,1168,-332,-13516,79,309,100
10285411,1168,-420,-13588,108,305,112
10290211,1120,-372,-13524,79,337,117
10295011,1064,-472,-13744,133,319,100
10299811,1120,-348,-13428,107,314,97
10374810,1012,-308,-13632,130,348,125
10379610,1176,-488,-13400,106,327,103
10384512,1132,-464,-13480,122,333,108
10390412,968,-364,-13496,128,313,105
10479612,1080,-392,-13508,102,330,102
10496812,1072,-484,-13460,96,326,114
10499412,1032,-388,-13524,108,331,71
10505312,1160,-400,-13524,95,359,93
10510212,1112,-412,-13632,108,338,84
10515012,1016,-504,-13620,126,346,92
10519812,1044,-424,-13416,78,321,82
10524612,1040,-404,-13584,132,337,87
10529412,1032,-488,-13620,104,336,86
10535312,1048,-472,-13496,135,354,99
10540112,1072,-412,-13544,99,326,130
10544912,1016,-484,-13564,115,324,87
10549812,1088,-384,-13540,108,352,96
10554612,1072,-424,-13596,119,347,103
10559412,1120,-436,-13576,100,323,108
10565312,1100,-328,-13448,116,366,100
10664210,1116,-380,-13428,98,341,97
10665810,1116,-380,-13428,98,341,97
10669712,1068,-332,-13552,102,325,114
10759311,1100,-420,-13652,107,329,105
10760968,1100,-420,-13652,107,329,105
10764811,1120,-372,-13452,95,326,80
10769611,1032,-452,-13588,98,334,93
10774511,1116,-440,-13520,113,333,94
10780411,984,-404,-13604,122,327,103
10785211,1156,-404,-13612,83,329,97
10790011,1124,-376,-13600,119,337,105
10794811,1080,-440,-13572,100,318,89
10799611,1136,-436,-13480,119,345,97
10804411,1024,-408,-13520,112,350,89
10810311,1108,-492,-13648,101,337,107
10815211,1100,-472,-13616,134,323,90
10820011,1088,-364,-13432,84,335,91
10824811,1060,-504,-13516,123,334,121
10829611,1044,-472,-13544,112,331,98
10834411,1124,-444,-13684,104,317,95
10909010,996,-492,-13424,114,322,115
11000910,996,-492,-13424,114,322,115
11013010,1132,-452,-13500,105,332,119
11014512,1064,-440,-13468,111,322,106
11019412,1012,-364,-13572,91,340,105
11025412,1052,-372,-13444,88,320,109
11030212,1124,-420,-13504,106,337,96
11035012,940,-440,-13536,111,336,93
11039812,1040,-444,-13464,118,302,100
11044612,1028,-384,-13408,118,354,95
11049412,1164,-312,-13356,104,349,100
11055412,1112,-412,-13640,107,347,104
11060212,1052,-432,-13500,106,324,72
11065012,1120,-480,-13628,112,327,105
11069812,988,-400,-13520,93,316,91
11074612,1112,-468,-13456,126,331,124
11079412,1072,-404,-13464,122,340,103
11085312,1064,-468,-13424,110,329,105
11176612,1104,-484,-13524,117,341,123
11180312,992,-336,-13352,120,350,102
11256512,956,-492,-13648,101,344,81
11260512,1216,-352,-13444,104,355,106
11265312,1088,-440,-13496,92,319,97
11270212,1104,-580,-13424,98,335,86
11275012,1104,-312,-13752,99,343,97
11279812,1084,-584,-13556,117,316,106
11284612,1140,-404,-13432,83,308,88
11289412,1008,-504,-13556,94,327,109
11295312,1172,-296,-13616,87,343,99
11300112,1040,-452,-13632,130,334,70
11304912,988,-480,-13396,90,322,101
11309812,1024,-352,-13380,98,346,109
11314612,1064,-472,-13616,91,346,95
11319412,1016,-504,-13616,148,327,102
11325312,1096,-392,-13532,101,313,77
11415610,1108,-452,-13536,106,338,87
11420410,1004,-452,-13544,101,314,99
11425212,1072,-348,-13568,76,360,99
11435211,1096,-408,-13420,124,327,117
11440111,1024,-424,-13568,91,335,110
11514012,956,-476,-13652,79,349,106
11515512,956,-476,-13652,79,349,106
11520412,1064,-388,-13596,117,314,113
11525212,1100,-508,-13588,93,303,106
11530112,1072,-416,-13412,103,334,93
11534912,1204,-536,-13512,103,367,107
11539712,1028,-356,-13520,114,347,103
11544512,1080,-384,-13604,124,330,91
11550412,1004,-348,-13356,104,313,94
11555212,1184,-476,-13576,111,341,90
11560012,1092,-460,-13728,108,353,98
11564812,992,-412,-13492,110,337,106
11569712,1172,-524,-13700,104,331,87
11685510,1168,-360,-13540,96,351,111
11690410,1068,-480,-13504,86,332,105
11695312,1040,-464,-13448,124,335,85
11700112,1084,-476,-13716,116,319,103
11704912,1136,-384,-13532,126,307,92
11709712,1012,-528,-13500,79,328,116
11714512,1056,-372,-13352,97,336,97
11789010,1180,-412,-13628,108,331,107
11790510,1180,-412,-13628,108,331,107
11795412,1040,-392,-13492,111,328,81
11800212,1180,-440,-13440,106,332,88
11805012,1076,-436,-13380,102,339,96
11809912,1056,-408,-13556,117,341,107
11814712,1052,-396,-13552,118,310,100
11819512,1044,-492,-13484,94,324,86
11825412,1136,-436,-13492,112,329,102
11830212,1100,-368,-13616,101,343,71
11835012,1028,-304,-13388,120,333,105
11923910,1028,-304,-13388,120,333,105
11925520,1080,-536,-13588,116,310,105
11936610,976,-380,-13496,79,343,90
11940310,1060,-404,-13560,111,344,93
11945112,988,-336,-13500,103,360,96
11949912,948,-460,-13552,150,296,106
11954712,1100,-416,-13516,97,307,96
11959512,984,-452,-13532,126,328,84
11965412,1112,-492,-13532,106,344,92
12040310,996,-388,-13468,123,339,111
12045210,1044,-448,-13716,121,315,102
12050112,1152,-432,-13620,124,324,102
12054912,980,-388,-13448,114,354,115
12059712,1108,-400,-13428,82,337,88
12064512,1072,-508,-13608,111,325,87
12070412,1016,-456,-13484,108,323,92
12075212,1076,-364,-13516,90,323,95
12080012,1156,-384,-13428,93,323,116
12171610,1036,-284,-13592,97,343,107
12175312,992,-440,-13608,99,338,112
12180112,1044,-448,-13492,76,340,103
12184912,1136,-420,-13492,104,342,97
12189712,1132,-412,-13408,115,300,101
12194512,1100,-464,-13532,127,333,91
12200412,1072,-372,-13452,79,344,95
12205312,960,-516,-13588,91,330,99
12210112,1128,-396,-13620,116,339,84
12214912,976,-428,-13364,109,335,107
12219712,1080,-452,-13428,117,340,99
12293912,1140,-268,-13644,98,316,97
12295412,1136,-452,-13572,88,358,109
12300312,908,-408,-13620,99,350,102
12305212,1056,-364,-13436,112,318,112
12310012,996,-392,-13488,111,328,117
12314812,1052,-388,-13576,102,330,120
12319612,1068,-488,-13588,134,350,111
12409010,1060,-384,-13356,98,353,100
12410610,1024,-384,-13460,123,335,114
12415412,1036,-476,-13500,113,344,117
12420212,996,-432,-13600,106,342,94
12425012,1152,-420,-13516,121,325,102
12442021,1100,-452,-13496,90,325,95
12444612,1092,-460,-13528,130,328,99
12449412,1172,-368,-13444,93,338,102
12455412,1040,-440,-13480,109,332,123
12460212,1216,-304,-13400,104,335,85
12465012,1088,-568,-13632,113,312,108
12469812,1116,-540,-13452,116,349,104
12474612,1100,-440,-13460,114,345,87
12549510,1056,-400,-13548,94,343,129
12554412,1080,-352,-13400,91,346,104
12560312,1064,-396,-13560,99,341,124
12565212,1168,-544,-13652,145,325,107
12570012,1108,-512,-13544,115,308,100
12574812,1032,-508,-13556,127,335,95
12687511,1160,-488,-13468,118,329,89
12690311,972,-320,-13572,120,341,97
12695111,1092,-496,-13680,111,336,116
12699911,1040,-408,-13440,100,337,111
12704711,1080,-524,-13628,106,315,93
12709511,1120,-376,-13532,80,350,113
12715411,1048,-468,-13396,109,325,74
12720211,1160,-352,-13504,113,345,102
12725111,1032,-404,-13472,96,318,96
12729911,1208,-472,-13656,103,300,94
12734711,1160,-504,-13544,103,335,104
12739511,1044,-504,-13660,86,335,79
12745411,884,-552,-13520,91,323,118
12750211,1004,-532,-13464,93,335,110
12825012,1032,-356,-13480,105,324,92
12829912,1136,-408,-13600,106,338,93
12834712,1108,-380,-13480,106,339,95
12925810,968,-464,-13548,81,320,107
12943011,1132,-444,-13636,98,315,89
12944511,1024,-436,-13456,94,344,111
12949511,1044,-504,-13508,116,343,106
12955411,1040,-384,-13468,102,315,71
12960211,1084,-544,-13588,107,341,99
12965011,1032,-424,-13616,93,347,114
12969811,1032,-396,-13456,121,305,92
12974611,1080,-368,-13592,115,312,90
12979511,1112,-476,-13420,107,287,92
12985411,1032,-436,-13444,111,333,103
12990211,1032,-484,-13648,77,345,75
12995011,1104,-480,-13436,119,351,92
12999811,1052,-400,-13368,102,345,87
13004611,1196,-356,-13524,117,321,105
13009411,1196,-356,-13524,117,321,105
13015311,984,-428,-13556,107,293,100
13089812,1192,-532,-13712,111,401,98
13182310,1028,-488,-13620,108,366,90
13184910,1072,-348,-13296,131,374,85
13189712,960,-496,-13760,73,293,115
13194512,960,-496,-13760,73,293,115
13200412,1156,-476,-13592,82,341,90
13205312,1120,-416,-13576,140,357,99
13210112,1080,-448,-13732,114,289,104
13214912,984,-344,-13364,136,320,104
13219712,1032,-380,-13652,113,313,88
13224512,1032,-380,-13652,113,313,88
13230412,1200,-452,-13568,72,314,84
13235212,1012,-572,-13524,124,311,104
13240012,1044,-500,-13440,100,312,92
13244912,1156,-280,-13440,136,335,99
13249712,1116,-496,-13572,79,341,82
13254512,1116,-496,-13572,79,341,82
13347312,992,-500,-13424,109,326,103
13350112,1004,-396,-13540,119,349,83
13354912,1132,-468,-13656,109,328,102
13429012,1132,-484,-13568,121,339,117
13442410,1028,-384,-13520,108,355,112
13445010,1052,-532,-13420,108,344,119
13449812,1016,-552,-13508,99,329,104
13454612,1016,-552,-13508,99,329,104
13459412,984,-392,-13616,107,340,94
13465312,976,-508,-13592,121,301,97
13470112,1196,-436,-13324,94,312,99
13474912,1140,-552,-13528,106,322,93
13479812,1068,-376,-13520,84,346,93
13484612,1068,-376,-13520,84,346,93
13489412,1028,-492,-13564,100,347,104
13495312,1108,-392,-13532,104,343,96
13500112,1120,-380,-13412,101,301,93
13504912,1048,-452,-13400,104,344,99
13597812,1040,-388,-13504,115,354,98
13599412,1040,-388,-13504,115,354,98
13604412,1104,-436,-13612,107,336,103
13610312,1028,-424,-13300,110,320,108
13615112,1064,-400,-13504,100,341,125
13714011,1048,-488,-13628,119,366,110
13715611,1156,-420,-13440,114,338,81
13719611,1156,-420,-13440,114,338,81
13724411,1100,-464,-13376,105,318,95
13730311,1052,-436,-13516,110,342,95
13735111,1064,-484,-13444,140,328,114
13739911,1064,-404,-13632,106,349,116
13744711,1056,-476,-13556,94,359,109
13749611,1056,-476,-13556,94,359,109
13754411,1012,-424,-13544,109,346,107
13760311,1128,-400,-13596,98,296,96
13765111,1088,-328,-13616,86,329,128
13769911,1148,-428,-13620,100,327,115
13862110,1052,-472,-13496,127,331,88
13864710,1052,-472,-13496,127,331,88
13869512,1084,-468,-13524,91,326,109
13875412,984,-420,-13560,130,312,101
13880212,1064,-432,-13536,143,311,125
13885112,1148,-412,-13556,115,341,85
13889912,1064,-360,-13612,83,357,115
13964810,1076,-384,-13544,98,337,103
13985510,1064,-392,-13540,135,337,86
13990310,948,-432,-13572,117,325,90
13995112,1136,-396,-13588,122,323,108
13999912,1064,-376,-13536,97,347,85
14004712,1064,-376,-13536,97,347,85
14009512,984,-480,-13500,102,343,78
14015412,1016,-396,-13428,108,325,95
14020212,1148,-356,-13664,84,322,88
14025112,1016,-296,-13472,116,314,99
14029912,1024,-404,-13512,94,340,108
14120010,1060,-492,-13468,108,319,120
14125110,1108,-424,-13456,94,339,92
14129910,1032,-384,-13612,98,339,88
14134710,1032,-384,-13612,98,339,88
14139512,968,-292,-13452,101,328,85
14145412,1128,-472,-13520,106,303,110
14150212,980,-384,-13608,121,318,94
14155112,1168,-452,-13408,131,325,109
14159912,1044,-500,-13448,93,311,106
14233911,1116,-456,-13696,115,326,84
14235511,1092,-376,-13528,94,325,110
14240311,1176,-420,-13604,120,329,101
14245111,1056,-356,-13588,120,317,101
14249911,1056,-356,-13588,120,317,101
14254711,1008,-524,-13492,112,308,89
14259511,1148,-428,-13488,80,315,109
14265411,1012,-320,-13612,107,348,115
14358810,1044,-572,-13488,107,337,85
14360410,1032,-396,-13524,135,331,105
14365212,1012,-400,-13716,101,341,116
14370012,1016,-500,-13528,84,345,113
14374812,1016,-500,-13528,84,345,113
14379612,1056,-340,-13600,129,336,101
14384412,1072,-432,-13524,90,334,104
14390312,1048,-412,-13432,123,319,88
14395212,1084,-432,-13692,89,326,94
14400012,1080,-412,-13476,99,346,98
14404812,1080,-412,-13476,99,346,98
14409612,1120,-372,-13524,103,312,108
14484610,1028,-448,-13416,108,306,82
14501812,996,-500,-13572,92,309,105
14504512,996,-500,-13572,92,309,105
14510412,1124,-460,-13364,104,320,89
14515312,1096,-376,-13584,95,370,107
14520112,1132,-384,-13716,116,337,111
14524912,1092,-524,-13448,116,296,106
14616110,1120,-360,-13524,125,330,100
14620012,1120,-360,-13524,125,330,100
14624812,1048,-404,-13472,126,362,77
14629712,996,-328,-13516,126,357,89
14634512,1040,-348,-13604,108,312,98
14640412,1080,-424,-13616,107,380,105
14645212,1000,-500,-13608,103,346,105
14650012,1000,-500,-13608,103,346,105
14654812,1024,-432,-13588,120,300,112
14659712,1032,-408,-13352,88,325,114
14664512,1052,-388,-13460,109,367,96
14670412,1076,-460,-13564,140,333,131
14675212,1024,-472,-13640,95,291,100
14774212,1080,-500,-13456,112,334,96
14775812,1020,-404,-13588,109,310,132
14779612,1020,-404,-13588,109,310,132
14784412,996,-420,-13632,103,341,116
14790312,1056,-404,-13544,129,344,116
14879412,1056,-404,-13544,129,344,116
14884412,1004,-372,-13452,121,315,96
14890312,1168,-436,-13336,95,345,89
14895212,1044,-420,-13512,120,338,115
14900012,1044,-420,-13512,120,338,115
14904812,1112,-380,-13464,117,322,106
14909612,980,-516,-13548,121,303,111
14914412,1116,-420,-13528,103,327,96
14920312,1196,-468,-13568,94,341,80
14925212,1044,-368,-13344,126,307,87
14938612,1136,-332,-13492,95,351,92
14940112,1136,-332,-13492,95,351,92
14945012,1036,-476,-13600,91,350,105
14949812,1096,-508,-13636,112,332,104
14954612,1048,-524,-13632,113,325,98
15029711,1040,-392,-13488,122,313,87
15034611,1156,-412,-13460,117,313,96
15039411,1088,-464,-13496,106,348,93
15131612,980,-480,-13596,100,355,91
15134512,980,-480,-13596,100,355,91
15140412,996,-296,-13544,110,324,102
15145212,996,-296,-13544,110,324,102
15150012,984,-404,-13488,109,302,104
15154812,1152,-412,-13596,100,322,100
15159612,964,-432,-13480,90,326,110
15164512,1132,-448,-13652,100,356,114
15170412,1048,-448,-13452,87,332,97
15175212,1048,-448,-13452,87,332,97
15180012,1092,-448,-13500,115,320,97
15184812,1144,-408,-13556,102,336,94
15189612,1180,-404,-13544,87,337,97
15194412,1112,-364,-13464,131,350,119
15200312,1032,-472,-13504,126,333,78
15205212,1032,-472,-13504,126,333,78
15297010,1044,-504,-13660,104,333,86
15374912,1064,-440,-13716,109,327,111
15379912,1084,-332,-13564,97,318,106
15384812,1104,-400,-13452,122,345,96
15389612,1096,-404,-13456,128,331,84
15394412,1120,-420,-13324,97,331,123
15400312,1148,-512,-13660,112,321,108
15405112,1100,-448,-13476,91,343,104
15409912,1028,-368,-13616,92,343,84
15414712,1232,-440,-13560,97,352,97
15419512,1020,-388,-13668,102,335,99
15424412,1140,-368,-13360,120,318,102
15434410,1116,-400,-13680,112,329,93
15440310,1084,-512,-13456,108,337,112
15445212,1224,-440,-13656,83,318,102
15450012,1092,-524,-13480,98,336,93
15454812,1004,-308,-13436,83,323,107
15548310,1108,-444,-13468,107,328,85
15549812,1108,-444,-13468,107,328,85
15554712,1088,-348,-13512,91,351,79
15559512,1160,-528,-13516,117,343,83
15634012,988,-476,-13392,127,328,88
15635512,984,-388,-13676,109,292,93
15640412,984,-388,-13676,109,292,93
15645212,1036,-376,-13420,118,352,91
15650112,1112,-444,-13628,102,352,108
15654912,1152,-420,-13600,113,328,109
15659712,1132,-504,-13536,90,352,123
15664512,1012,-488,-13596,120,322,84
15670412,1024,-432,-13536,83,289,108
15675212,1012,-480,-13572,123,335,91
15680112,1132,-440,-13404,104,325,80
15684912,1084,-392,-13648,112,325,113
15689712,1116,-516,-13548,87,345,116
15694512,1092,-424,-13452,118,364,92
15812112,1040,-588,-13524,92,349,109
15814812,1040,-588,-13524,92,349,109
15819712,1128,-384,-13588,130,299,91
15824512,1064,-468,-13536,102,326,113
15830412,1044,-448,-13556,117,308,82
15835312,1124,-408,-13456,120,324,103
15910112,1204,-348,-13500,107,353,103
15915112,1176,-500,-13412,96,338,109
15919912,1132,-360,-13600,110,320,114
15924712,1012,-528,-13544,118,313,104
15934610,1144,-416,-13612,114,340,95
15939410,1056,-400,-13620,107,325,106
15945312,1120,-356,-13552,80,295,87
15950112,1164,-484,-13540,113,348,112
15954912,1072,-392,-13532,119,333,101
15959712,1080,-448,-13628,92,343,78
15964512,1140,-468,-13588,114,328,99
15970412,1080,-376,-13492,97,329,95
16059512,1080,-376,-13492,97,329,95
16064412,1136,-500,-13628,71,343,93
16070312,1116,-448,-13588,120,327,119
16075112,1180,-416,-13412,125,337,80
16080012,1044,-432,-13584,124,316,94
16084812,1076,-364,-13500,107,353,98
16089612,1084,-404,-13548,93,331,96
16094412,1208,-352,-13588,128,338,92
16169111,1036,-404,-13352,113,354,105
16170611,1036,-404,-13352,113,354,105
16174411,1136,-364,-13528,124,333,103
16180311,1016,-496,-13532,96,297,106
16185111,1112,-356,-13576,106,337,104
16189911,1048,-504,-13516,84,362,94
16194711,1132,-456,-13556,129,351,84
16199511,1060,-472,-13584,125,317,81
16204411,1044,-408,-13344,114,324,97
16297812,1148,-432,-13660,93,335,85
16300412,1148,-432,-13660,93,335,85
16305212,1080,-336,-13456,115,353,84
16310112,1112,-416,-13512,92,334,111
16314912,1100,-436,-13324,119,344,106
16319712,1120,-452,-13496,119,292,117
16324512,1168,-464,-13500,106,305,120
16330412,968,-488,-13576,111,350,126
16335212,1132,-376,-13596,75,339,86
16340012,1084,-400,-13588,88,383,111
16344812,1008,-460,-13560,108,310,102
16419911,1208,-400,-13500,77,361,116
16424811,1052,-328,-13668,103,364,95
16445412,1140,-384,-13588,102,333,100
16450212,1004,-420,-13524,83,315,93
16455012,1032,-432,-13696,122,337,89
16459912,1124,-504,-13500,99,373,102
16464712,1024,-404,-13556,101,375,72
16555912,1028,-520,-13516,100,325,114
16560012,1028,-520,-13516,100,325,114
16564812,1072,-368,-13452,98,327,112
16569612,1096,-348,-13540,116,349,85
16574412,1096,-384,-13628,94,351,106
16580312,1020,-404,-13616,96,307,105
16585112,1168,-428,-13500,100,308,104
16590012,1092,-460,-13432,115,357,92
16594812,1128,-472,-13556,105,356,90
16599612,1084,-544,-13540,124,308,91
16604412,1004,-388,-13568,96,340,114
16610312,1012,-440,-13512,107,331,90
16615112,1032,-428,-13764,103,366,84
16689911,1036,-324,-13508,113,303,80
16695011,1052,-380,-13468,88,317,79
16699811,1044,-456,-13384,107,341,84
16704611,1044,-272,-13532,104,330,99
16819010,1104,-496,-13384,116,348,103
16820610,1104,-496,-13384,116,348,103
16824412,1104,-392,-13428,88,318,99
16830312,1068,-420,-13528,117,324,114
16835112,1144,-488,-13504,102,309,107
16839912,1124,-392,-13620,91,336,123
16844712,956,-472,-13436,79,338,96
16849512,1080,-452,-13456,128,357,117
16855412,1100,-408,-13452,89,304,114
16860212,1068,-504,-13616,114,286,100
16865112,1048,-360,-13384,105,318,96
16869912,984,-484,-13636,66,345,97
16874712,1096,-416,-13684,110,330,93
16879512,1016,-428,-13332,100,340,111
16885412,1048,-440,-13520,131,324,104
16890212,1040,-484,-13568,100,330,105
16964812,1128,-360,-13608,116,330,101
16978511,1096,-412,-13748,111,344,115
16980011,1096,-412,-13748,111,344,115
17071110,1008,-460,-13488,94,329,83
17074810,1008,-460,-13488,94,329,83
17079612,1080,-384,-13584,113,355,97
17084412,1112,-428,-13480,105,341,101
17090312,1108,-332,-13540,105,326,102
17095112,1092,-460,-13412,122,329,93
17099912,1148,-432,-13480,117,316,99
17104712,1004,-440,-13532,94,332,95
17109612,1052,-524,-13584,92,333,103
17114412,924,-412,-13584,120,341,108
17120312,1044,-532,-13604,133,321,107
17125112,1160,-500,-13468,93,316,103
17129912,1080,-416,-13488,61,333,103
17134712,1104,-440,-13588,103,342,84
17139512,956,-436,-13568,108,328,90
17145412,1040,-440,-13568,103,318,106
17236612,1032,-484,-13672,135,351,85
17315010,1060,-352,-13508,132,336,99
17319912,1104,-472,-13544,90,318,99
17324712,988,-456,-13644,104,327,103
17329512,1028,-336,-13612,107,336,100
17335412,1084,-492,-13452,109,336,99
17340212,1056,-448,-13528,106,359,109
17345012,1012,-484,-13572,118,322,107
17349812,1088,-380,-13516,102,325,93
17354612,1060,-336,-13500,97,321,89
17359512,1076,-448,-13556,80,347,111
17365412,1188,-492,-13464,107,338,113
17370212,1108,-472,-13396,94,346,101
17375012,1004,-376,-13468,102,317,115
17379812,1032,-408,-13620,86,337,98
17384612,1072,-488,-13492,119,343,92
17389412,1044,-392,-13548,110,321,101
17478812,1044,-392,-13548,110,321,101
17496012,1144,-444,-13688,95,358,105
17499712,1096,-444,-13476,115,335,86
17504512,1072,-456,-13472,111,314,97
17580710,1064,-448,-13636,100,361,74
17584510,1036,-380,-13548,98,335,103
17590410,1100,-456,-13512,99,333,96
17595312,1068,-440,-13456,82,347,90
17600112,1068,-400,-13484,103,330,100
17604912,1112,-404,-13452,122,343,106
17609712,1072,-480,-13456,104,322,103
17614512,1204,-452,-13252,93,353,99
17620412,1120,-352,-13624,117,332,102
17625212,1204,-512,-13464,106,339,99
17630012,1056,-484,-13560,93,324,91
17634912,1136,-400,-13624,98,298,98
17639712,1016,-392,-13644,106,337,86
17644512,1044,-348,-13596,129,345,106
17735110,1004,-500,-13532,113,350,85
17740110,1252,-396,-13648,100,323,97
17745012,1044,-532,-13464,104,311,100
17749812,1164,-388,-13496,119,328,91
17754612,1036,-452,-13400,94,361,99
17759412,1032,-436,-13452,121,345,72
17858111,1064,-368,-13396,94,366,106
17859711,1064,-368,-13396,94,366,106
17864511,1000,-432,-13544,88,351,109
17869411,1080,-472,-13404,112,344,98
17875311,1100,-316,-13616,117,323,95
17880111,1088,-512,-13440,92,329,108
17884911,1184,-408,-13564,95,341,109
17889711,1044,-552,-13376,97,364,101
17894511,1112,-484,-13472,113,326,87
17900411,1092,-420,-13492,98,327,88
17905211,1084,-428,-13504,86,336,110
17998010,1028,-376,-13468,121,353,93
18014912,1052,-452,-13716,96,338,95
18019712,1120,-444,-13580,104,324,101
18024512,1076,-388,-13532,90,314,92
18030412,1180,-488,-13436,111,327,88
18035212,992,-396,-13616,110,324,117
18040012,968,-452,-13476,85,330,89
18044812,1032,-440,-13360,111,340,96
18049612,1016,-512,-13496,94,322,96
18123810,1024,-392,-13560,106,315,106
18125410,1024,-392,-13560,106,315,106
18130212,1148,-356,-13412,107,339,86
18135012,1048,-504,-13508,91,359,98
18139812,1116,-452,-13476,106,345,97
18144612,1164,-500,-13476,107,333,92
18149412,1080,-420,-13464,104,319,128
18155312,1192,-488,-13528,89,326,93
18160212,1140,-436,-13624,114,340,99
18251510,1112,-452,-13564,112,310,85
18255410,1112,-452,-13564,112,310,85
18260212,976,-440,-13476,91,324,95
18265012,1040,-488,-13460,89,341,94
18269812,1068,-508,-13592,105,374,114
18274712,1020,-376,-13464,109,332,88
18279512,1116,-464,-13428,118,328,97
18285412,1092,-464,-13556,69,330,116
18290212,964,-388,-13564,106,320,108
18295012,1056,-432,-13552,94,324,81
18299812,1008,-412,-13456,105,328,100
18374211,1100,-436,-13744,90,354,90
18375811,1100,-436,-13744,90,354,90
18379511,1032,-428,-13516,125,328,99
18385411,1120,-296,-13520,89,345,83
18390311,1068,-404,-13660,98,336,91
18395111,1088,-340,-13492,103,328,70
18399911,1052,-556,-13436,108,345,90
18491369,972,-428,-13704,82,314,97
18503611,1080,-416,-13620,116,321,93
18505111,1080,-416,-13620,116,321,93
18510111,1072,-456,-13504,122,336,103
18514911,1072,-400,-13412,108,338,88
18519711,1032,-472,-13552,122,339,98
18524511,1200,-544,-13744,103,329,99
18530411,1012,-328,-13488,105,323,92
18535211,1056,-436,-13608,125,362,109
18540111,1076,-464,-13424,129,335,89
18544911,1084,-340,-13564,118,313,95
18549711,1060,-488,-13628,123,296,127
18554511,1068,-404,-13544,96,337,117
18628712,1060,-384,-13564,111,362,84
18630312,1060,-384,-13564,111,362,84
18635112,1112,-512,-13488,110,322,97
18640012,1080,-444,-13620,89,334,101
18644812,1196,-472,-13532,99,316,96
18649612,1052,-492,-13320,91,370,97
18741812,1092,-324,-13556,93,342,110
18744712,1092,-324,-13556,93,342,110
18749512,1124,-352,-13524,94,334,102
18755412,1024,-452,-13572,103,310,118
18760212,1108,-484,-13648,84,346,102
18765012,1040,-416,-13476,115,329,115
18769812,1020,-328,-13632,113,329,100
18774712,1012,-520,-13536,111,331,119
18779512,1140,-488,-13496,117,317,96
18785412,1128,-432,-13488,114,361,105
18790212,1128,-364,-13448,96,340,99
18795012,1116,-404,-13548,95,325,82
18799812,1080,-544,-13492,106,322,96
18804612,1020,-384,-13520,126,312,92
18903412,1156,-392,-13584,98,329,79
18905012,1156,-392,-13584,98,329,79
18910012,1052,-404,-13504,113,331,94
18914812,964,-452,-13600,95,332,92
19005921,1160,-300,-13572,83,347,107
19019521,1016,-420,-13264,114,330,109
19024412,1080,-508,-13380,106,329,107
19030412,1080,-452,-13512,87,361,110
19035212,1104,-508,-13664,102,354,100
19040012,1044,-452,-13440,108,318,131
19044812,1028,-424,-13392,104,319,92
19049612,1048,-436,-13488,99,312,86
19054412,1068,-492,-13552,110,316,115
19060312,1044,-356,-13516,125,338,99
19065112,1056,-444,-13464,115,330,115
19070012,1156,-372,-13472,107,285,116
19074812,1124,-508,-13596,103,301,89
19079612,956,-384,-13568,123,327,92
19084412,1036,-380,-13560,95,316,106
19090312,1020,-452,-13584,120,356,107
19165010,980,-420,-13412,113,327,76
19256512,1012,-452,-13336,115,314,106
19260412,1000,-376,-13644,81,329,91
19265212,1008,-528,-13496,100,360,99
19270112,1088,-464,-13592,84,369,67
19274912,876,-548,-13584,137,326,65
19279712,1064,-392,-13496,95,261,32
19284512,1100,-348,-13508,128,349,10
19290412,1044,-320,-13608,103,339,-38
19295212,1100,-256,-13508,96,340,-111
19300112,1056,-236,-13408,102,334,-186
19304912,1048,-212,-13464,147,325,-294
19309712,1124,-104,-13464,120,348,-354
19314512,1188,-352,-13388,111,317,-460
19320412,1100,-188,-13568,131,322,-564
19325212,1168,-312,-13624,139,335,-689
19330012,1120,-116,-13448,96,309,-856
19423612,1076,-96,-13668,225,297,-3692
19425212,1076,-96,-13668,225,297,-3692
19449711,1196,-256,-13772,329,326,-4077
19529222,1372,-356,-13808,37,419,-3250
19530821,1372,-356,-13808,37,419,-3250
19534512,952,-524,-13572,174,231,-3155
19540412,1092,-256,-13688,183,206,-3070
19545212,1592,-576,-13060,415,388,-2892
19550012,1256,-780,-13388,286,298,-2701
19554812,712,-812,-13952,169,237,-2509
19559612,664,-572,-13880,133,155,-2326
19564512,560,-728,-13372,296,249,-2151
19570412,512,-620,-13244,280,305,-1913
19575212,664,-844,-13728,256,366,-1717
19580012,480,-816,-13376,208,298,-1428
19584812,824,-944,-13564,185,335,-1109
19589612,560,-1004,-13676,208,371,-744
19594412,1168,-984,-13700,139,268,-501
19600312,1088,-992,-13512,80,219,-252
19691910,1144,-456,-13504,105,328,110
19694610,1144,-456,-13504,105,328,110
19699410,1068,-460,-13680,106,354,106
19705411,1052,-416,-13736,112,324,84
19783310,1080,-428,-13576,109,351,110
19784810,1080,-428,-13576,109,351,110
19789610,1096,-416,-13568,112,339,97
19794412,1116,-432,-13484,105,330,105
19800312,1092,-432,-13460,110,312,124
19805112,1004,-496,-13612,122,311,117
19810012,1068,-416,-13524,124,355,121
19814812,1064,-456,-13592,104,333,110
19819612,1164,-396,-13408,113,328,107
19824412,1112,-472,-13496,106,348,101
19830312,1120,-388,-13392,75,338,105
19835112,1016,-408,-13584,118,340,86
19839912,984,-512,-13500,115,310,110
19844712,1044,-388,-13420,112,348,100
19958810,1040,-436,-13644,111,352,94
19973112,956,-400,-13360,102,318,97
19974612,956,-400,-13360,102,318,97
19979512,1080,-428,-13548,104,315,101
19985412,1128,-472,-13364,103,368,100
19990212,1116,-484,-13560,107,361,110
20065710,1100,-384,-13524,145,391,108
20069410,1016,-476,-13500,137,413,106
20075312,1164,-384,-13508,152,439,111
20080112,1164,-436,-13508,146,430,103
20084912,1008,-436,-13696,117,392,127
20089712,1108,-464,-13536,106,349,107
20094512,1104,-448,-13408,103,345,134
20100412,1076,-572,-13800,127,353,126
20105312,1024,-428,-13712,108,386,172
20110112,1084,-540,-13628,110,406,199
20114912,1108,-468,-13664,140,335,215
20119712,1024,-764,-13620,116,352,280
20211310,1096,-1532,-13544,1635,535,6201
20215212,1236,-1408,-13772,1672,523,6642
20220012,1128,-1456,-13372,1665,495,7043
20224812,1156,-1600,-13384,1519,367,7427
20229712,1064,-1408,-13492,1497,580,7819
20234512,2236,2296,-13396,1231,627,7810
20240412,1856,-268,-14832,657,518,7209
20245212,1320,-984,-12532,-386,425,6829
20323412,1092,-1080,-13832,-412,423,-300
20325012,1092,-1080,-13832,-412,423,-300
20329812,1200,-404,-13036,613,150,-148
20334612,1064,-696,-14072,-180,-38,-213
20339412,808,-380,-13376,277,283,-148
20345412,936,-608,-13408,153,511,-110
20350212,1304,-636,-13148,125,562,-24
20355012,1180,-624,-13652,-12,277,27
20359812,1032,-484,-13804,136,129,97
20364612,1092,-416,-13580,102,315,111
20454912,1092,-416,-13580,102,315,111
20467010,960,-444,-13324,91,305,115
20469812,1080,-488,-13496,111,348,128
20474612,1052,-432,-13492,87,336,114
20479412,1196,-440,-13532,117,323,95
20485412,1052,-468,-13400,79,330,105
20490212,1076,-420,-13592,110,322,105
20495012,1116,-344,-13388,97,343,109
20499812,1040,-464,-13572,90,329,130
20504612,1104,-504,-13416,91,334,90
20580910,1080,-424,-13444,84,326,113
20584710,1036,-456,-13580,108,294,98
20589510,1072,-396,-13364,96,353,76
20594412,1016,-520,-13620,118,324,97
20600312,1076,-436,-13560,111,330,102
20605112,1064,-460,-13628,111,308,95
20609912,1112,-360,-13468,113,352,102
20614712,1072,-464,-13620,100,317,87
20704612,1060,-504,-13444,117,304,93
20709612,1072,-416,-13476,111,354,115
20714512,1144,-500,-13496,75,330,113
20720412,1060,-488,-13548,137,335,81
20725212,1144,-404,-13552,92,309,102
20730012,1028,-420,-13532,111,341,124
20734812,1032,-416,-13468,103,341,96
20739612,1072,-476,-13504,108,327,99
20744412,1132,-364,-13544,86,329,87
20750312,1124,-384,-13648,82,332,112
20755212,992,-328,-13444,100,344,119
20760012,992,-380,-13536,109,335,104
20834610,1116,-376,-13512,119,304,98
20839410,1008,-392,-13628,109,323,96
20845312,1000,-452,-13592,111,325,102
20850112,1028,-404,-13420,131,314,87
20966810,1024,-472,-13680,107,335,86
20987511,1048,-436,-13620,110,322,115
20990111,1048,-436,-13620,110,322,115
20994911,1096,-512,-13436,119,337,82
20999811,1052,-380,-13432,110,347,102
21004611,1076,-492,-13496,77,322,110
21009411,1168,-392,-13764,111,348,104
21015311,1076,-540,-13580,106,329,112
21020111,1036,-420,-13540,110,357,94
21024911,1044,-452,-13688,109,315,112
21029711,1024,-492,-13496,108,323,93
21034511,1120,-452,-13588,102,349,117
21039411,1124,-384,-13664,103,332,120
21045311,1144,-548,-13644,118,348,117
21050111,1060,-524,-13624,103,320,89
21054911,1112,-484,-13612,96,340,108
21130510,944,-456,-13600,103,352,92
21135410,1052,-352,-13420,98,336,97
21226610,1004,-488,-13432,117,313,89
21229410,1104,-348,-13580,100,342,108
21235312,1056,-380,-13512,85,335,93
21240112,984,-372,-13588,82,336,92
21244912,1148,-396,-13464,92,339,99
21249812,1140,-356,-13428,93,366,82
21254612,1116,-548,-13576,98,357,93
21259412,1056,-356,-13480,87,313,105
21265312,1044,-404,-13524,96,337,85
21270112,1064,-452,-13424,92,341,106
21274912,1096,-476,-13404,110,376,115
21279712,1016,-404,-13508,111,339,99
21284512,1024,-404,-13468,104,317,98
21289412,1076,-424,-13516,103,322,99
21295312,1076,-312,-13572,111,341,120
21300112,1140,-436,-13568,115,352,98
21392912,1060,-532,-13528,99,327,110
21394512,1060,-532,-13528,99,327,110
21470512,1044,-508,-13600,105,337,111
21497912,1104,-416,-13488,105,308,92
21499412,1104,-416,-13488,105,308,92
21505412,1016,-480,-13592,109,327,118
21510212,1064,-408,-13508,115,347,125
21515012,1008,-328,-13480,115,332,101
21519912,1032,-496,-13608,124,314,89
21524712,1036,-464,-13564,101,324,116
21529512,976,-408,-13404,107,362,104
21535412,1132,-512,-13500,107,327,69
21540212,1096,-464,-13648,117,335,88
21545012,1060,-488,-13532,117,320,103
21549812,1168,-468,-13504,122,342,86
21554612,1056,-412,-13600,100,332,103
21559512,1036,-360,-13488,91,337,115
21565412,1028,-380,-13544,120,317,117
21570212,1108,-536,-13408,87,336,98
21659412,1108,-536,-13408,87,336,98
21664412,1064,-364,-13324,111,326,109
21670412,1016,-324,-13772,111,330,98
21745610,1044,-340,-13564,105,345,87
21749510,1048,-556,-13480,126,326,97
21755412,976,-472,-13560,132,336,101
21760212,1056,-512,-13384,131,319,117
21765012,1072,-372,-13532,82,318,129
21769912,1084,-448,-13576,90,322,101
21774712,1168,-340,-13468,94,349,100
21779512,1032,-364,-13564,111,337,100
21785412,1028,-400,-13408,108,322,119
21790212,1072,-536,-13592,88,341,118
21795012,1168,-424,-13588,104,312,83
21799812,992,-492,-13548,116,340,92
21804612,968,-456,-13496,102,315,113
21809512,1152,-492,-13616,129,317,95
21899512,1152,-492,-13616,129,317,95
21904512,1156,-432,-13580,111,342,95
21909412,1048,-448,-13680,127,282,87
21915312,1020,-432,-13548,124,350,99
21920112,1128,-472,-13408,81,326,114
21924912,1096,-448,-13628,119,341,94
22036710,1080,-476,-13408,123,331,85
22039512,1056,-504,-13448,77,361,100
22044412,1100,-444,-13548,120,322,108
22050412,1000,-404,-13452,91,355,112
22055212,1104,-504,-13556,138,319,100
22060012,1036,-424,-13432,100,325,106
22064812,1036,-536,-13568,133,316,89
22069612,1104,-424,-13572,89,333,92
22074412,1032,-456,-13556,84,350,96
22080412,1064,-440,-13632,102,342,110
22085212,1076,-480,-13696,95,322,99
22176510,1164,-532,-13420,146,302,88
22180210,992,-584,-13568,105,260,85
22185112,1092,-584,-13336,112,357,118
22189912,992,-316,-13632,73,375,86
22194712,1012,-416,-13716,138,300,106
22199512,948,-348,-13368,96,301,100
22205412,1076,-396,-13344,99,362,107
22210212,1264,-524,-13548,111,400,100
22215012,1172,-524,-13624,118,297,102
22289710,1124,-356,-13412,129,302,91
22294710,1128,-448,-13640,84,381,82
22299512,1036,-344,-13532,102,344,105
22305412,976,-500,-13452,121,308,109
22310212,1152,-484,-13572,122,330,101
22315112,1088,-472,-13648,91,351,87
22319912,1248,-432,-13660,102,318,86
22324712,1016,-496,-13556,111,280,124
22414710,1104,-484,-13384,132,277,87
22419812,1132,-524,-13556,105,332,95
22424612,1060,-504,-13672,99,388,103
22441611,1040,-448,-13492,84,348,114
22445411,1128,-448,-13576,79,359,104
22450311,1156,-568,-13688,85,329,94
22455111,1080,-488,-13580,86,280,91
22459911,964,-332,-13000,98,371,115
22464711,1160,-232,-13700,122,349,100
22469511,1200,-448,-12608,109,425,85
22475411,1228,-424,-14284,189,279,87
22480311,980,-556,-13244,80,198,78
22554412,1072,-500,-13312,131,386,100
22560412,976,-516,-13704,90,308,88
22565212,944,-504,-13368,177,414,98
22570012,1044,-388,-13612,59,278,73
22574812,1184,-412,-13704,117,351,100
22579612,1080,-448,-13600,103,297,66
22667910,1080,-448,-13600,103,297,66
22669512,1072,-404,-13348,134,374,111
22675412,896,-460,-13716,106,281,107
22680212,1000,-496,-13532,124,390,100
22685012,1084,-548,-13720,65,341,80
22689812,1124,-476,-13524,158,304,104
22694612,1080,-316,-13308,52,360,92
22699512,1140,-492,-13564,136,351,94
22705412,1064,-436,-13556,88,314,75
22710212,1076,-452,-13644,134,348,120
22715012,1084,-460,-13484,115,336,100
22719812,1092,-388,-13604,114,316,93
22724612,1164,-428,-13552,93,360,99
22729412,1172,-432,-13632,100,300,114
22804112,1008,-428,-13288,112,350,99
22805712,1008,-428,-13288,112,350,99
22809412,1200,-364,-13544,64,329,102
22815312,1128,-364,-13624,130,321,116
22907010,1036,-408,-13512,105,320,93
22909612,1112,-388,-13292,95,334,97
22914412,1036,-380,-13560,102,335,111
22920312,1092,-420,-13556,91,347,98
22925112,1080,-516,-13412,118,340,104
22935111,1088,-484,-13716,104,342,98
22940011,1144,-396,-13536,103,351,90
22944911,996,-444,-13516,119,316,98
22949711,1124,-428,-13468,135,307,110
22954511,1180,-432,-13500,83,340,102
22960411,1104,-380,-13708,79,318,95
22965211,1060,-380,-13452,92,346,84
22970011,1024,-420,-13372,112,319,114
22974911,1004,-444,-13576,119,315,111
22979711,1028,-428,-13552,118,359,95
22984511,1144,-408,-13468,115,321,118
23083310,1112,-480,-13428,107,335,110
23084912,1112,-480,-13428,107,335,110
23089712,1216,-348,-13176,98,414,95
23180110,1216,-348,-13176,98,414,95
23185212,1180,-260,-13980,99,292,92
23190012,1032,-508,-13300,122,287,107
23194912,948,-400,-13676,108,350,109
23199712,964,-580,-13508,80,322,125
23204512,1008,-516,-13464,97,381,97
23210412,1212,-460,-13812,90,297,91
23215212,1036,-396,-13340,115,306,101
23220012,1140,-340,-13384,138,344,111
23224912,1132,-388,-13552,101,356,95
23229712,1052,-536,-13592,133,327,88
23234512,1024,-572,-13632,132,285,85
23240412,1040,-528,-13380,97,319,96
23245212,1048,-396,-13436,107,346,88
23250012,1132,-440,-13404,78,386,74
23254812,1080,-252,-13684,124,332,87
23346510,980,-472,-13628,105,314,118
23424410,968,-412,-13432,119,312,116
23456011,1036,-392,-13468,85,337,93
23459811,1032,-444,-13584,121,372,91
23464611,1132,-400,-13692,110,329,98
23469511,1088,-500,-13428,99,334,128
23475411,1080,-496,-13372,106,314,128
23480211,1096,-424,-13440,102,340,100
23485011,1200,-324,-13468,71,344,101
23489811,1044,-308,-13520,117,303,111
23494611,1152,-388,-13552,100,349,107
23499411,1108,-564,-13548,103,332,97
23505311,964,-444,-13552,121,318,77
23510211,1076,-492,-13668,112,322,93
23515011,1064,-480,-13528,102,319,105
23519811,1100,-380,-13544,101,342,107
23524611,1088,-400,-13500,95,333,92
23529411,1008,-420,-13592,104,365,85
23619714,1100,-452,-13508,81,362,100
23624612,1108,-424,-13360,116,329,101
23629412,996,-484,-13572,126,283,107
23704410,1216,-468,-13464,89,348,109
23709411,1040,-424,-13664,122,325,102
23715311,1136,-408,-13560,102,328,85
23720211,1188,-520,-13668,111,326,96
23725011,1028,-600,-13424,103,341,115
23729811,1012,-444,-13544,92,317,91
23734611,1020,-456,-13432,94,335,84
23739411,1028,-372,-13504,105,337,102
23745311,1108,-500,-13560,98,325,111
23750211,948,-468,-13616,108,358,101
23755011,972,-516,-13604,84,322,100
23759811,1080,-448,-13568,114,300,101
23764611,992,-296,-13384,86,350,87
23769411,1064,-436,-13456,114,326,105
23859712,1064,-380,-13480,94,347,94
23864712,976,-436,-13336,127,337,123
23869512,1108,-436,-13596,123,328,124
23874412,1052,-472,-13448,84,314,113
23880312,1136,-488,-13660,94,345,87
23885112,1024,-512,-13296,127,343,113
23959610,992,-484,-13644,76,328,127
23973012,956,-368,-13500,105,321,115
23974512,1076,-584,-13476,114,386,114
23979412,1108,-440,-13628,55,374,82
23985312,1200,-468,-13668,122,295,90
23990112,1132,-368,-13436,80,300,102
23995012,940,-396,-13632,130,317,114
23999812,1040,-436,-13380,114,384,96
24004612,1052,-448,-13604,100,335,122
24009412,1024,-532,-13424,116,312,76
24015312,1028,-444,-13516,103,318,89
24020112,1080,-428,-13344,80,335,116
24136210,1136,-420,-13436,107,337,96
24140012,1164,-332,-13540,94,301,88
24144812,1120,-352,-13488,83,322,106
24149612,1040,-388,-13516,92,360,103
24154412,1104,-324,-13592,94,352,95
24160312,1008,-384,-13620,98,308,103
24165112,952,-368,-13372,92,325,118
24170012,1012,-464,-13460,97,360,87
24244112,1100,-396,-13608,119,334,98
24245612,1100,-396,-13608,119,334,98
24249412,1036,-500,-13564,104,295,104
24255312,1028,-500,-13584,78,331,88
24260112,1212,-364,-13408,103,368,92
24264912,1096,-388,-13564,92,333,92
24269712,1040,-364,-13612,128,318,107
24274512,1016,-460,-13572,84,326,119
24280412,1076,-408,-13360,85,378,94
24285212,1040,-380,-13572,139,354,82
24375912,1040,-380,-13572,139,354,82
24379712,1120,-460,-13400,113,322,87
24384512,1048,-416,-13472,102,315,113
24390412,1096,-464,-13412,112,349,121
24395212,1072,-404,-13584,81,315,73
24400012,1068,-376,-13552,108,327,82
24404812,1128,-452,-13344,75,319,102
24409612,1088,-400,-13556,97,331,109
24414512,1056,-500,-13448,95,336,120
24420412,1124,-404,-13536,107,312,119
24495010,888,-424,-13516,95,357,105
24511712,944,-484,-13428,124,298,96
24515412,1092,-500,-13468,91,324,105
24520212,1128,-544,-13552,119,339,116
24525012,1040,-404,-13436,102,323,111
24529812,1112,-356,-13352,106,306,87
24534612,960,-476,-13396,85,342,92
24539412,1008,-400,-13512,112,340,108
24631468,1048,-428,-13564,113,337,86
24635312,1140,-400,-13436,102,335,106
24640112,1032,-420,-13420,106,322,93
24645012,1084,-364,-13592,109,314,112
24649812,1000,-424,-13424,67,358,90
24654612,1072,-356,-13528,134,362,92
24659412,988,-552,-13484,101,339,87
24665312,1036,-480,-13644,93,316,94
24670112,1184,-312,-13612,107,319,120
24674912,956,-552,-13484,87,332,106
24679712,1260,-324,-13492,73,358,109
24684612,1060,-456,-13496,126,297,104
24759011,1124,-468,-13636,124,348,96
24760611,1124,-468,-13636,124,348,96
24765411,1048,-448,-13440,112,345,124
24770211,1064,-420,-13396,117,361,98
24775011,1124,-452,-13488,99,349,105
24779811,1068,-500,-13604,100,299,106
24870910,1076,-532,-13352,109,316,96
24874710,1056,-440,-13500,94,321,84
24879612,1120,-452,-13516,76,350,92
24884412,988,-308,-13604,100,355,98
24890312,996,-360,-13532,128,303,89
24895112,1140,-380,-13424,128,332,87
24899912,1080,-424,-13388,111,288,72
24904712,1140,-540,-13640,112,330,93
24909512,1004,-384,-13620,107,341,107
24915412,1096,-384,-13440,104,346,92
24920312,1116,-368,-13388,90,324,95
24925112,1100,-492,-13620,106,317,104
24934912,1048,-368,-13544,130,340,100
24939812,1028,-480,-13548,125,338,109
25014411,1152,-400,-13380,125,353,95
25019411,1128,-500,-13480,152,338,91
25025311,1016,-428,-13652,115,320,84
25141510,1092,-512,-13472,101,352,93
25145410,1080,-440,-13512,111,333,100
25150312,1116,-448,-13528,111,350,122
25155112,1084,-384,-13432,116,346,112
25159912,888,-468,-13712,104,340,100
25164712,1076,-340,-13492,111,334,95
25169512,1172,-384,-13620,103,321,99
25175412,1004,-488,-13524,123,339,96
25180312,956,-396,-13608,106,351,112
25185112,1056,-424,-13644,109,329,96
25189912,1064,-396,-13332,120,348,112
25194712,1024,-444,-13668,118,341,112
25199512,1012,-408,-13564,79,319,88
25205412,1056,-496,-13680,82,361,119
25210212,1096,-416,-13472,120,328,79
25215012,1032,-480,-13616,104,356,100
25307811,1080,-384,-13516,79,341,105
25386410,1032,-416,-13640,123,313,87
25390110,996,-432,-13372,113,332,99
25394912,1040,-464,-13628,106,333,96
25399712,1036,-504,-13616,131,315,96
25404512,972,-408,-13716,94,333,104
25409412,1092,-444,-13588,83,355,109
25415312,1152,-432,-13492,93,333,91
25420112,1160,-388,-13604,103,340,102
25424912,1104,-444,-13496,102,327,89
25455812,1036,-404,-13620,101,353,122
25459512,1052,-444,-13516,88,352,109
25465412,1028,-440,-13568,96,326,127
25470212,1028,-444,-13560,108,341,121
25475012,1012,-348,-13640,103,329,105
25479812,1076,-400,-13640,85,324,122
25484612,1020,-512,-13620,118,332,94
25489412,1000,-432,-13464,112,343,86
25580812,1012,-424,-13624,123,332,105
25584612,1036,-436,-13548,120,331,103
25589412,1128,-424,-13488,98,311,101
25664010,1056,-392,-13472,91,329,116
25665510,1104,-384,-13632,101,335,89
25670412,1168,-372,-13520,102,339,107
25675212,1080,-508,-13632,111,327,105
25680012,1048,-384,-13400,105,343,99
25684912,1044,-456,-13572,103,330,84
25689712,1060,-552,-13660,125,354,101
25694512,1236,-676,-13088,119,359,109
25700412,1304,-288,-13896,111,337,107
25705212,1112,-352,-13436,66,297,97
25710012,880,-396,-13656,121,317,88
25714812,912,-372,-13300,100,324,83
25719612,1132,-380,-13512,123,403,81
25724512,1232,-524,-13676,98,375,78
25730412,1036,-440,-13492,125,272,72
25824810,1044,-512,-13532,111,359,96
25829710,1140,-504,-13604,92,392,88
25834612,1044,-404,-13688,106,318,116
25839412,976,-352,-13476,112,263,102
25845312,1016,-396,-13508,108,339,115
25919912,1008,-440,-13540,99,332,94
25924812,1076,-504,-13572,131,277,102
25949011,1076,-352,-13660,113,281,114
25950511,976,-496,-13484,113,305,104
25954411,1036,-436,-13444,89,387,101
25960311,1112,-372,-13484,104,378,100
25965111,1144,-476,-13528,112,297,85
25969911,1120,-488,-13572,120,294,101
25974711,1044,-428,-13340,80,322,107
25979511,1112,-328,-13492,95,399,110
25984411,1100,-436,-13516,114,340,105
25990311,1132,-404,-13592,92,289,84
25995111,1044,-464,-13528,88,316,99
26087110,1096,-380,-13368,95,351,113
26089820,1208,-344,-13456,113,354,93
26094612,1196,-432,-13604,76,332,104
26099412,1052,-416,-13560,87,337,109
26105312,980,-464,-13496,88,355,80
26110112,1108,-316,-13524,101,344,87
26114912,1092,-528,-13688,120,318,104
26213611,984,-512,-13536,93,336,112
26215368,1044,-332,-13384,94,363,81
26220211,1088,-476,-13496,102,331,109
26225011,1188,-452,-13652,107,330,105
26229811,1052,-444,-13500,131,323,96
26234611,1064,-392,-13672,85,323,125
26239411,1116,-492,-13580,101,354,111
26245411,984,-492,-13532,110,334,94
26250211,956,-480,-13540,98,324,100
26255011,1016,-588,-13420,109,337,106
26259811,1068,-328,-13568,122,352,89
26350912,1172,-432,-13564,79,321,106
26354812,1100,-416,-13632,95,330,110
26359612,1152,-428,-13456,109,312,101
26364412,1152,-428,-13456,109,312,101
26370312,1168,-452,-13380,83,336,106
26375112,1040,-400,-13480,98,334,79
26379912,984,-452,-13420,113,329,102
26384712,1112,-460,-13460,135,337,94
26389612,1060,-268,-13536,107,328,88
26464211,988,-388,-13560,137,326,91
26488512,1068,-432,-13624,104,304,97
26490012,1072,-436,-13556,85,360,99
26495012,996,-340,-13672,92,353,73
26499812,1132,-356,-13664,109,321,89
26504612,1132,-592,-13544,117,312,101
26509412,1132,-592,-13544,117,312,101
26515312,1080,-476,-13656,68,320,101
26520112,1036,-432,-13528,125,349,107
26613612,1004,-392,-13464,89,335,80
26615112,1080,-408,-13612,120,327,86
26620012,1052,-476,-13500,91,316,91
26624912,1132,-436,-13456,86,322,84
26629712,1012,-584,-13516,116,313,108
26634512,1012,-584,-13516,116,313,108
26640412,1100,-436,-13384,97,326,106
26645212,1100,-412,-13628,68,335,104
26650012,1096,-388,-13664,106,336,105
26654912,984,-320,-13428,126,356,104
26659712,1108,-508,-13608,113,311,101
26734310,992,-540,-13544,114,321,129
26735810,1124,-404,-13456,97,333,103
26739612,1024,-460,-13616,108,331,114
26744412,1024,-460,-13616,108,331,114
26750312,1064,-456,-13492,107,343,96
26755212,1056,-400,-13464,109,331,108
26760012,1140,-420,-13688,104,313,106
26852512,1068,-408,-13628,97,303,96
26855112,1128,-412,-13632,105,336,105
26859912,1200,-440,-13588,110,338,119
26864712,1088,-400,-13524,94,322,93
26869512,1088,-400,-13524,94,322,93
26875412,1092,-324,-13480,111,338,109
26880212,1108,-496,-13600,119,338,96
26885112,1008,-416,-13392,96,305,82
26889912,1056,-544,-13588,114,322,102
26894712,1084,-404,-13424,104,305,108
26899512,1084,-404,-13424,104,305,108
26905412,1068,-504,-13532,117,323,91
26910212,1148,-384,-13408,89,331,111
26985410,1072,-456,-13468,66,340,88
27006211,1136,-460,-13492,111,325,108
27009911,1044,-444,-13512,108,323,99
27014711,1052,-464,-13464,98,344,120
27019611,1052,-464,-13464,98,344,120
27111869,1048,-540,-13596,107,317,95
27114510,1048,-540,-13596,107,317,95
27120410,1004,-444,-13460,107,329,89
27125212,1176,-388,-13720,113,330,99
27130012,1012,-344,-13432,92,308,88
27134812,1052,-536,-13632,131,326,93
27139712,1052,-536,-13632,131,326,93
27144512,1160,-316,-13364,106,328,113
27150412,1112,-356,-13496,108,335,101
27155212,980,-396,-13424,99,314,114
27160012,1136,-460,-13528,100,364,92
27164812,1020,-420,-13556,66,367,106
27169612,1020,-420,-13556,66,367,106
27174412,1060,-540,-13716,130,332,83
27180412,976,-432,-13504,84,333,113
27278910,1128,-448,-13404,110,331,96
27280511,1076,-504,-13676,135,313,105
27285311,1140,-528,-13524,105,325,97
27373714,1140,-528,-13524,105,325,97
27375212,948,-500,-13580,103,321,88
27380112,1160,-356,-13428,105,341,115
27385012,1072,-480,-13548,113,372,103
27389812,1072,-480,-13548,113,372,103
27394612,1168,-424,-13428,120,325,94
27399412,1028,-460,-13540,119,329,115
27405312,1024,-396,-13676,103,327,100
27410112,944,-436,-13592,87,331,97
27415012,1020,-540,-13480,124,319,108
27419812,1020,-540,-13480,124,319,108
27424612,1044,-460,-13432,89,328,92
27448911,1168,-364,-13568,103,343,97
27450411,1052,-448,-13528,93,324,88
27455211,1004,-444,-13520,115,352,96
27460011,1092,-404,-13464,100,344,96
27464811,1092,-404,-13464,100,344,96
27539610,1116,-404,-13616,125,348,100
27544410,1064,-396,-13520,95,334,105
27636311,1136,-500,-13488,105,343,101
27640311,1012,-424,-13512,106,355,93
27645111,1084,-552,-13600,90,348,104
27649911,1084,-552,-13600,90,348,104
27654711,984,-456,-13408,125,302,89
27659611,1008,-356,-13588,111,324,101
27664411,1032,-488,-13468,80,317,89
27670311,1152,-380,-13524,85,338,98
27675111,1016,-340,-13448,98,350,81
27679911,1016,-340,-13448,98,350,81
27684711,1032,-396,-13556,117,334,104
27689511,1092,-492,-13508,124,302,93
27695411,1124,-468,-13656,134,303,90
27700311,1024,-424,-13672,112,331,97
27705111,1108,-512,-13392,89,321,100
27709911,1108,-512,-13392,89,321,100
27802469,1032,-420,-13476,106,319,83
27805110,1032,-444,-13584,84,301,109
27880769,984,-444,-13680,131,363,105
27884610,984,-444,-13680,131,363,105
27889410,1064,-480,-13312,107,327,93
27895412,1216,-504,-13588,82,320,99
27900212,984,-444,-13584,86,335,97
27905012,1008,-464,-13440,99,349,107
27909812,1008,-464,-13440,99,349,107
27914612,1116,-440,-13588,115,338,109
27919412,972,-388,-13648,125,301,86
27925312,1172,-500,-13552,103,335,76
27945911,1108,-464,-13432,112,347,107
27949611,1108,-464,-13432,112,347,107
27954411,1060,-540,-13484,89,323,106
27960411,1144,-472,-13624,120,315,97
27965211,1060,-348,-13444,96,340,111
27970011,1060,-348,-13444,96,340,111
28062810,1116,-416,-13448,105,348,115
28064410,1116,-416,-13448,105,348,115
28070312,1092,-524,-13412,94,321,91
28075112,968,-504,-13540,105,330,69
28149611,1100,-360,-13684,106,320,100
28154711,996,-496,-13560,92,328,84
28159511,1080,-360,-13544,101,346,111
28165411,1092,-452,-13476,88,327,109
28170211,1028,-560,-13544,115,328,99
28175111,1028,-560,-13544,115,328,99
28179911,1064,-404,-13456,116,359,101
28184711,964,-492,-13592,114,332,85
28189511,1108,-524,-13424,103,346,88
28195411,1084,-420,-13556,105,331,93
28200211,1016,-396,-13512,93,308,104
28205011,1016,-396,-13512,93,308,104
28209811,1092,-496,-13508,106,311,103
28326010,1080,-388,-13536,84,327,96
28329810,1080,-388,-13536,84,327,96
28334612,1100,-484,-13608,120,330,101
28339412,1216,-436,-13492,121,319,107
28345312,1048,-340,-13472,87,305,104
28350212,1024,-348,-13544,102,355,95
28355012,1024,-348,-13544,102,355,95
28429610,1036,-484,-13536,101,325,114
28457011,1084,-416,-13524,119,340,95
28459611,1084,-416,-13524,119,340,95
28464411,1044,-492,-13440,134,317,104
28470411,1100,-372,-13588,69,319,124
28475211,1100,-372,-13588,69,319,124
28480011,1068,-512,-13500,88,369,103
28484811,1152,-440,-13556,118,338,100
28489611,1104,-456,-13464,141,345,101
28494411,1148,-476,-13592,91,317,108
28500311,1028,-428,-13492,92,337,111
28591412,1048,-412,-13584,88,346,72
28595112,1048,-412,-13584,88,346,72
28600012,1032,-476,-13640,95,355,96
28604812,1080,-380,-13608,110,363,95
28609612,1128,-532,-13592,93,336,112
28614412,1108,-420,-13392,96,335,117
28620312,1040,-484,-13488,88,320,96
28625112,1040,-484,-13488,88,320,96
28630012,1056,-400,-13600,75,336,97
28704411,1004,-400,-13540,112,326,114
28709411,1108,-388,-13620,76,359,107
28715311,1032,-548,-13580,109,370,72
28720111,1060,-432,-13384,114,348,97
28724911,1072,-492,-13636,119,327,131
28729711,1080,-444,-13436,86,341,104
28734611,1100,-444,-13644,113,363,94
28739411,1064,-436,-13620,94,337,88
28829112,1144,-448,-13624,96,353,97
28830712,1104,-424,-13424,111,344,95
28834512,1104,-424,-13424,111,344,95
28840412,1052,-308,-13572,79,348,97
28845212,1052,-308,-13572,79,348,97
28850012,1100,-376,-13556,94,305,110
28854812,1016,-412,-13480,109,326,74
28859612,1072,-488,-13616,109,335,92
28864512,1112,-496,-13468,84,338,100
28870412,1216,-496,-13508,105,347,84
28875212,1216,-496,-13508,105,347,84
28880012,1076,-404,-13300,84,343,101
28954511,1008,-372,-13464,105,318,97
28967869,1156,-344,-13448,96,348,85
28969410,1156,-344,-13448,96,348,85
28975310,1060,-400,-13504,99,347,129
28980112,1044,-500,-13460,108,336,100
28984912,1072,-356,-13404,123,320,113
28989712,1080,-400,-13460,67,307,97
29079311,1140,-428,-13604,116,321,90
29080911,1152,-476,-13464,109,331,77
29084711,1152,-476,-13464,109,331,77
29089511,1076,-428,-13468,94,336,105
29095411,1076,-484,-13580,98,346,128
29100311,1076,-484,-13580,98,346,128
29105111,1136,-452,-13580,109,335,105
29109911,1100,-424,-13480,107,329,88
29114711,1112,-460,-13408,95,340,76
29119511,1300,216,-12832,50,198,95
29125411,-264,1840,-19752,-517,1948,206
29130211,-1240,-272,-10852,1202,1743,149
29135011,836,-28,-11332,1866,206,160
29210110,804,-720,-13232,-116,-179,97
29215010,872,-124,-13888,57,434,106
29219810,984,-372,-14440,-28,431,76
29224712,1320,-316,-12688,433,511,127
29229512,1004,-484,-13400,135,303,97
29344810,1072,-384,-13460,118,276,111
29349870,1144,-452,-13412,125,334,109
29354710,940,-428,-13700,77,317,105
29359510,1048,-492,-13348,122,346,100
29365412,1040,-376,-13656,141,353,96
29370212,1048,-432,-13352,113,299,84
29375012,1232,-432,-13652,95,339,99
29379912,1092,-400,-13700,103,324,86
29384712,1020,-412,-13508,125,356,99
29389512,1052,-464,-13508,149,310,81
29395412,1016,-416,-13444,89,324,105
29400212,1040,-352,-13668,85,339,63
29405012,864,-340,-13632,89,348,79
29409812,1096,-548,-13624,134,361,98
29414612,996,-364,-13492,102,322,93
29489012,1052,-440,-13424,96,348,83
29509811,996,-488,-13584,67,324,101
29602910,1032,-436,-13512,133,350,145
29604412,1032,-436,-13512,133,350,145
29610412,1036,-396,-13504,114,328,106
29615212,1100,-452,-13660,120,324,101
29620112,1124,-452,-13520,101,325,102
29624912,1104,-404,-13428,121,342,103
29629712,1044,-444,-13408,92,353,89
29634512,1096,-532,-13568,88,342,101
29640412,1052,-288,-13420,91,360,86
29645212,1036,-340,-13712,108,331,82
29650012,952,-424,-13424,113,347,90
29654812,1068,-380,-13628,120,329,93
29659712,1044,-500,-13596,90,325,115
29664512,1092,-384,-13436,116,331,99
29670412,1188,-468,-13612,80,334,98
29675212,1080,-372,-13560,97,327,90
29767910,1092,-448,-13620,119,356,97
29769512,1092,-448,-13620,119,356,97
29846012,1056,-412,-13564,113,310,91
29850012,1056,-412,-13564,113,310,91
29854812,1092,-384,-13352,105,354,100
29859612,1104,-380,-13684,79,286,96
29864412,1112,-444,-13316,76,343,85
29870312,1112,-496,-13800,121,347,114
29875112,1072,-488,-13484,113,292,104
29880012,1108,-468,-13380,95,355,126
29884812,1020,-468,-13684,84,299,98
29889612,1072,-364,-13308,104,339,96
29894412,1020,-376,-13736,84,379,68
29900312,1076,-488,-13476,100,312,93
29905112,1144,-472,-13288,110,335,105
29909912,1116,-352,-13800,84,327,104
29914712,1116,-452,-13412,113,359,83
29919612,1084,-488,-13528,74,319,100
30009812,1084,-488,-13528,74,319,100
30034210,1072,-432,-13620,118,338,115
30035710,1072,-432,-13620,118,338,115
30039512,1044,-452,-13516,114,312,101
30114210,928,-452,-13592,123,350,101
30115812,928,-452,-13592,123,350,101
30119512,1092,-468,-13764,92,347,69
30125412,1072,-504,-13472,85,284,87
30130212,984,-456,-13576,89,315,115
30135012,1056,-480,-13588,91,342,81
30139812,1160,-504,-13468,107,345,98
30144612,1072,-452,-13440,127,359,99
30149412,1004,-408,-13616,120,305,99
30155412,1072,-464,-13412,91,313,98
30160212,1100,-432,-13424,104,360,99
30165012,1240,-432,-13496,94,334,106
30169812,984,-436,-13488,129,316,101
30174612,1032,-284,-13684,103,312,116
30179412,1076,-564,-13580,86,348,106
30272412,1132,-340,-13664,102,364,91
30275112,1132,-340,-13664,102,364,91
30279912,1080,-420,-13384,101,319,88
30284712,1004,-452,-13572,140,349,115
30289512,1040,-432,-13504,117,323,106
30387812,1076,-412,-13340,112,289,108
30389412,1076,-412,-13340,112,289,108
30395412,952,-400,-13956,91,441,103
30400212,1072,-444,-13068,167,264,91
30405112,1184,-592,-13284,165,316,116
30409912,1276,-480,-13904,111,40,75
30414712,1032,-528,-12800,-52,403,91
30419512,1112,-296,-14784,85,494,100
30425412,1008,-424,-12836,78,366,88
30435312,1020,-312,-14172,12,237,93
30440112,876,-572,-12820,177,342,96
30444912,1180,-248,-13680,123,475,89
30449712,1136,-408,-13892,91,149,116
30454512,1112,-368,-13380,127,272,76
30544611,1112,-368,-13380,127,272,76
30549511,1024,-496,-13288,66,373,79
30555411,1072,-436,-13860,128,300,90
30560211,1008,-512,-13148,133,377,125
30565011,1180,-444,-13680,133,326,109
30569811,1064,-476,-13184,72,299,109
30644312,1036,-504,-12804,89,275,99
30645912,1036,-504,-12804,89,275,99
30649812,1124,-368,-13604,55,432,95
30654612,1064,-464,-13724,72,338,104
30659412,1172,-408,-13104,138,341,111
30665412,1176,-452,-13960,121,284,105
30670212,992,-476,-13256,92,290,89
30675012,948,-500,-13752,135,444,83
30679812,1080,-476,-13828,96,284,100
30684612,1156,-368,-13332,136,344,82
30689412,1036,-440,-13540,67,297,104
30784112,1116,-416,-13736,88,318,104
30785712,1116,-416,-13736,88,318,104
30789512,952,-460,-13572,80,306,102
30795412,944,-544,-13468,109,318,91
30800212,1140,-360,-13552,99,363,90
30805012,1164,-448,-13616,81,339,98
30809812,1212,-380,-13380,105,310,105
30814612,1084,-416,-13480,117,299,108
30819512,1040,-296,-13532,92,355,94
30893412,1120,-408,-13628,114,310,102
30894912,1120,-408,-13628,114,310,102
30899812,1148,-468,-13592,121,315,100
30904612,1112,-416,-13500,98,315,117
30909412,1108,-432,-13548,94,330,112
30915412,1084,-304,-13520,100,341,85
30920212,1120,-388,-13524,95,335,105
30925012,996,-456,-13560,89,356,96
30935011,1000,-436,-13592,95,335,92
30939911,1036,-416,-13476,123,334,113
31031969,992,-456,-13452,76,374,102
31034610,992,-456,-13452,76,374,102
31039410,1152,-384,-13880,107,354,92
31045312,1092,-456,-13500,113,279,98
31050112,1064,-376,-13556,117,316,94
31054912,988,-444,-13624,100,338,97
31059812,1032,-352,-13588,93,375,93
31064612,1064,-440,-13564,106,322,82
31069412,1116,-456,-13552,99,317,108
31075312,1084,-380,-13384,82,332,83
31149511,1104,-492,-13500,97,360,107
31154511,1200,-376,-13420,119,310,98
31160411,1080,-468,-13536,116,331,84
31165211,1020,-380,-13636,94,332,84
31170011,1024,-396,-13616,116,325,101
31174811,1048,-464,-13400,98,320,97
31179611,1080,-452,-13540,115,316,99
31271210,1044,-448,-13476,119,290,100
31275110,1004,-484,-13428,119,307,78
31280012,948,-516,-13520,125,345,97
31284812,1080,-468,-13488,109,369,98
31289612,1124,-456,-13536,90,339,108
31294412,1076,-456,-13668,102,347,109
31300312,980,-436,-13676,108,343,102
31305112,1128,-300,-13476,103,341,90
31309912,1084,-364,-13396,135,353,88
31314712,1120,-488,-13572,96,329,96
31319612,1044,-504,-13576,85,334,94
31324412,1144,-424,-13504,80,343,110
31330312,1000,-340,-13824,86,374,116
31428811,1168,-572,-12772,118,408,91
31443412,756,-504,-13744,119,225,106
31444912,756,-504,-13744,119,225,106
31449812,940,-444,-13340,96,436,115
31454612,1216,-352,-13620,44,377,111
31547912,1072,-300,-13696,111,245,97
31549512,1072,-300,-13696,111,245,97
31555412,888,-560,-13344,119,285,100
31560212,1108,-452,-13356,59,421,99
31565012,1164,-356,-13644,113,412,94
31569812,1164,-504,-13716,123,257,98
31574612,984,-464,-13472,106,230,99
31579512,984,-440,-13256,91,394,103
31585412,1200,-408,-13724,99,415,82
31590212,1144,-412,-13732,93,326,92
31595012,900,-528,-13560,103,283,101
31599812,972,-412,-13356,118,329,89
31604612,1212,-396,-13556,92,408,94
31609412,1120,-304,-13844,75,345,89
31615312,1032,-176,-13460,121,218,81
31689011,984,-440,-13308,82,381,91
31690611,984,-440,-13308,82,381,91
31695411,1216,-580,-13748,80,442,86
31787512,1056,-484,-13588,117,246,107
31790312,1056,-484,-13588,117,246,107
31795112,964,-580,-13356,82,296,93
31799912,1008,-528,-13448,67,424,80
31804712,1220,-328,-13820,106,383,96
31809612,940,-440,-13520,121,246,108
31814412,928,-380,-13496,91,303,102
31820312,1128,-384,-13312,84,405,116
31825112,1220,-376,-13456,81,382,85
31829912,1100,-516,-13692,105,291,89
31834712,1016,-492,-13412,116,265,78
31839512,1072,-600,-13316,102,331,79
31845412,1004,-432,-13460,80,398,82
31850312,988,-368,-13732,110,329,90
31855112,1052,-440,-13536,110,251,106
31859912,1032,-456,-13284,112,339,92
31952912,1088,-356,-13596,122,338,96
32042412,1148,-388,-13640,84,333,99
32045112,1148,-388,-13640,84,333,99
32049912,980,-400,-13576,107,294,118
32054712,1020,-312,-13524,128,320,96
32059512,940,-492,-13680,102,322,124
32065412,1148,-528,-13488,95,366,93
32070212,1104,-484,-13904,102,300,87
32075112,1188,-368,-13272,99,312,99
32079912,1224,-248,-13508,78,310,113
32084712,1120,-368,-13516,110,317,91
32089512,1044,-420,-13604,119,344,96
32095412,1040,-388,-13452,114,332,130
32100212,1080,-560,-13484,104,333,101
32105012,1072,-584,-13392,103,345,100
32109812,1080,-420,-13656,128,333,101
32114712,1116,-416,-13432,76,285,77
32207412,1092,-452,-13492,111,314,104
32210012,1092,-452,-13492,111,314,104
32214912,1044,-484,-13764,99,335,85
32219712,1032,-320,-13496,97,341,101
32294310,984,-528,-13504,85,328,88
32295810,984,-528,-13504,85,328,88
32299612,1012,-552,-13496,103,334,83
32304412,1132,-440,-13536,109,344,90
32310312,1044,-392,-13656,116,319,82
32315212,1024,-508,-13392,112,347,91
32320012,1064,-404,-13640,90,363,97
32324812,1136,-396,-13536,113,306,126
32329612,1100,-304,-13512,121,306,105
32334412,1120,-560,-13492,105,344,95
32340312,1144,-400,-13624,97,361,116
32345112,1156,-448,-13476,124,348,102
32349912,1012,-440,-13656,118,321,110
32354812,1004,-452,-13580,115,345,102
32469512,1044,-284,-13500,112,323,89
32485110,1100,-460,-13644,90,339,106
32490010,1020,-496,-13504,94,342,109
32494912,1068,-440,-13508,85,345,90
32499712,1104,-396,-13596,115,339,102
32504512,992,-464,-13640,105,288,104
32579111,1120,-384,-13668,99,330,88
32580711,1120,-384,-13668,99,330,88
32584411,1048,-456,-13412,112,308,91
32590411,1024,-476,-13544,105,326,95
32595211,1036,-488,-13524,62,320,107
32600011,1000,-456,-13432,113,354,111
32604811,1080,-420,-13476,112,341,117
32609611,1040,-464,-13644,91,297,114
32614411,1160,-344,-13496,74,348,104
32620411,1092,-392,-13532,96,363,107
32625211,984,-400,-13424,128,361,92
32630011,1056,-424,-13620,109,333,84
32721912,1168,-496,-13420,120,313,99
32724512,1168,-496,-13420,120,313,99
32730412,1120,-484,-13560,116,312,88
32735212,964,-396,-13548,98,347,103
32740012,984,-500,-13652,94,353,112
32744912,972,-372,-13424,145,338,114
32749712,1076,-652,-13500,109,321,82
32754512,1160,-300,-13440,77,355,99
32828712,1156,-292,-13448,158,321,90
32830212,1156,-292,-13448,158,321,90
32835112,1024,-408,-13488,93,282,97
32839912,1108,-420,-13536,90,300,117
32844712,1096,-388,-13424,88,405,129
32849612,1108,-540,-13700,93,321,95
32854412,1292,-488,-13524,134,308,108
32860312,984,-436,-13420,109,285,78
32865112,1020,-456,-13652,144,346,74
32869912,956,-500,-13548,105,340,91
32961021,1068,-480,-13788,126,295,99
32974421,1116,-420,-13504,115,332,96
32980412,1008,-596,-13540,105,303,111
32985312,1136,-460,-13596,91,307,110
32990112,948,-436,-13620,70,323,120
32994912,1100,-260,-13468,64,351,120
32999712,1068,-248,-13504,88,344,99
33004512,1088,-304,-13496,108,316,123
33010412,1004,-436,-13564,100,329,113
33015212,1112,-560,-13560,95,348,103
33089711,1096,-388,-13720,68,325,88
33094611,1120,-460,-13504,128,335,109
33099511,984,-444,-13512,144,337,102
33105411,1076,-428,-13212,103,318,91
33110211,996,-508,-13716,126,344,102
33115011,1104,-460,-13480,81,298,82
33119811,1140,-448,-13620,93,345,105
33212110,1008,-436,-13188,79,247,86
33214819,1008,-436,-13188,79,247,86
33219612,1096,-500,-13880,134,400,85
33224412,1040,-416,-13256,12,307,101
33230312,1040,-380,-13456,151,399,101
33235212,1064,-464,-13664,90,292,97
33240012,1068,-408,-13360,120,351,112
33244812,1096,-420,-13740,95,300,86
33249612,1152,-400,-13568,136,289,107
33254412,1052,-656,-13344,113,350,86
33260312,1068,-344,-13880,81,349,98
33265112,1056,-468,-13396,68,314,93
33269912,1092,-588,-13448,150,339,88
33344312,1136,-488,-13460,117,344,90
33345912,1136,-488,-13460,117,344,90
33349612,1064,-512,-13504,90,316,121
33354412,1052,-480,-13476,117,312,107
33360312,1064,-448,-13484,99,333,115
33476612,812,-588,-13236,112,378,77
33497311,936,-400,-13476,112,306,107
33499911,936,-400,-13476,112,306,107
33504711,1112,-408,-13656,115,341,116
33509611,1112,-544,-13408,92,329,105
33514411,1156,-276,-13740,97,346,109
33520311,928,-400,-13560,92,279,92
33525111,964,-496,-13480,115,405,94
33529911,1276,-544,-13688,119,350,108
33534711,1140,-408,-13624,123,307,101
33539511,896,-388,-13480,133,244,113
33545411,848,-428,-13412,114,288,77
33550311,1076,-548,-13616,77,393,123
33555111,1168,-396,-13732,74,366,80
33559911,1168,-328,-13644,124,285,104
33634312,1076,-560,-13464,93,377,124
33635912,1076,-560,-13464,93,377,124
33639612,1224,-312,-13584,106,377,92
33644412,1136,-440,-13748,120,256,86
33736612,1040,-500,-13640,100,247,116
33739568,1056,-404,-13416,93,345,99
33744412,1104,-224,-13472,87,388,97
33750312,1180,-604,-13600,119,352,96
33755112,1140,-412,-13680,127,267,107
33759912,996,-412,-13356,119,274,100
33764712,1132,-436,-13332,75,364,86
33769612,1144,-392,-13592,56,368,97
33774412,1128,-260,-13488,114,303,108
33780312,976,-532,-13572,97,270,102
33785112,1004,-424,-13608,88,360,106
33789912,1096,-472,-13528,89,376,103
33794712,1216,-520,-13644,128,290,107
33799512,1004,-444,-13424,86,295,82
33805412,968,-460,-13428,116,364,79
33810312,1244,-480,-13436,69,392,81
33884511,1008,-412,-13724,125,316,84
33976110,1204,-288,-13292,103,299,118
34004011,996,-292,-13556,110,326,80
34005511,996,-292,-13556,110,326,80
34009411,1072,-564,-13680,108,314,94
34015311,1132,-220,-13492,80,354,101
34020111,916,-376,-13532,121,328,99
34024911,1120,-540,-13600,118,342,98
34029711,1172,-228,-13508,125,339,107
34034511,1048,-468,-13540,120,303,99
34039411,1140,-496,-13536,81,317,100
34045311,1148,-252,-13644,95,362,123
34050111,1052,-600,-13712,121,317,94
34054911,1144,-364,-13536,94,338,92
34059711,1072,-448,-13556,135,270,106
34064511,1024,-748,-13556,89,342,92
34070411,1168,-228,-13524,70,369,122
34075211,968,-412,-13532,128,346,77
34168410,1088,-428,-13484,102,334,95
34169910,1088,-428,-13484,102,334,95
34246421,1028,-396,-13464,74,337,101
34250412,1044,-448,-13648,110,363,92
34255312,988,-528,-13604,108,339,82
34260112,1088,-324,-13408,94,341,106
34264912,916,-520,-13572,88,336,122
34269712,1252,-292,-13468,86,347,115
34274512,996,-624,-13660,114,355,102
34280412,1144,-316,-13556,81,314,93
34285212,1040,-496,-13328,127,312,116
34290012,940,-460,-13644,75,313,96
34294912,1232,-360,-13604,108,350,100
34299712,980,-520,-13536,126,344,114
34304512,1152,-192,-13388,82,316,81
34310412,1052,-544,-13480,126,332,101
34315212,1100,-344,-13564,91,325,96
34320012,1052,-472,-13508,96,353,96
34409712,1052,-472,-13508,96,353,96
34414612,1188,-460,-13604,121,321,95
34419412,980,-524,-13564,102,330,111
34425312,1104,-396,-13668,82,336,82
34535510,1104,-492,-13540,109,325,81
34539412,1092,-456,-13780,149,347,101
34545312,1032,-340,-13260,102,303,86
34550112,1116,-476,-13316,133,348,94
34554912,1148,-432,-13640,78,320,105
34559712,952,-528,-13584,116,303,92
34564612,1160,-520,-13604,113,307,103
34569412,948,-420,-13424,111,333,104
34575312,1172,-404,-13584,121,357,94
34580112,980,-448,-13656,89,330,98
34584912,976,-588,-13564,108,319,100
34589712,1092,-488,-13684,99,338,87
34594512,984,-456,-13496,125,350,82
34685110,984,-456,-13496,125,350,82
34690112,1104,-524,-13464,122,304,98
34694912,1036,-436,-13416,93,332,93
34699812,1108,-444,-13744,98,351,100
34704612,1032,-504,-13660,95,330,93
34709412,1064,-420,-13384,117,310,94
34715312,1084,-432,-13568,107,332,98
34789412,1052,-532,-13544,48,318,92
34795412,1152,-424,-13544,118,327,94
34800212,1080,-344,-13520,99,322,80
34805012,1060,-448,-13388,112,355,100
34809812,1056,-396,-13656,87,331,101
34814712,1080,-440,-13580,106,318,99
34819512,1004,-396,-13400,102,307,103
34825412,1080,-384,-13596,130,355,93
34830212,1088,-376,-13528,93,336,99
34924312,1116,-416,-13424,131,310,111
34925912,1116,-416,-13424,131,310,111
34946711,1064,-476,-13376,100,319,96
34950511,1120,-504,-13448,121,305,98
34955411,1076,-472,-13420,88,361,110
34960211,1036,-372,-13636,84,374,105
34965011,984,-420,-13576,123,316,127
34969811,1148,-452,-13644,115,315,117
34974611,1024,-448,-13544,115,348,113
34979411,1180,-460,-13656,80,328,101
34985411,1012,-436,-13548,127,351,110
35060410,1088,-452,-13372,113,312,87
35065210,1084,-496,-13540,68,355,86
35070012,1084,-388,-13424,62,332,107
35074812,1116,-488,-13584,94,342,103
35079612,1032,-392,-13404,111,353,109
35084412,1072,-488,-13376,103,333,109
35090312,1088,-380,-13596,106,336,100
35182710,1100,-400,-13716,102,359,96
35185510,1100,-400,-13716,102,359,96
35190412,1108,-488,-13388,101,318,101
35195212,1108,-396,-13652,101,363,95
35200012,964,-400,-13536,86,316,89
35204812,1060,-512,-13572,125,298,99
35209612,1308,-408,-13496,92,330,109
35214412,1036,-460,-13376,94,322,102
35220312,1080,-456,-13612,123,340,90
35225112,1016,-300,-13556,84,332,107
35230012,1072,-416,-13252,116,323,116
35234812,1064,-400,-13580,109,324,97
35239612,1072,-460,-13480,80,303,103
35314311,1080,-380,-13400,111,346,95
35315911,1080,-380,-13400,111,346,95
35319611,1132,-276,-13564,107,308,96
35324411,1148,-504,-13492,115,310,98
35330311,1132,-392,-13412,116,325,95
35421412,1068,-328,-13448,126,345,106
35425112,1076,-460,-13740,115,326,92
35435010,1052,-488,-13572,95,342,88
35439810,1160,-488,-13684,114,328,98
35444612,1060,-396,-13548,100,316,91
35449412,1100,-432,-13516,99,332,99
35455312,1048,-432,-13588,78,325,118
35460112,1108,-388,-13584,115,359,73
35464912,1120,-328,-13488,117,335,102
35469712,1072,-524,-13588,110,297,119
35474612,1080,-492,-13544,82,313,92
35479412,1060,-508,-13580,87,346,100
35485312,1136,-432,-13352,113,359,93
35490112,1056,-388,-13428,123,310,107
35494912,1072,-400,-13476,94,323,94
35593412,988,-380,-13252,77,309,93
35595012,988,-380,-13252,77,309,93
35599912,1260,-436,-13660,139,407,135
35692912,1124,-364,-13620,82,276,122
35694412,1124,-364,-13620,82,276,122
35700412,820,-380,-13232,111,261,88
35705212,1152,-372,-13096,105,429,97
35710012,1092,-420,-13960,95,332,96
35714812,1152,-516,-13520,121,310,89
35719612,1012,-536,-13892,100,265,103
35724412,948,-492,-13056,105,368,106
35730312,1252,-280,-13820,84,390,92
35735112,1168,-424,-13584,105,272,94
35740012,992,-444,-13588,105,271,93
35744812,940,-400,-13432,124,361,88
35749612,1156,-444,-13436,90,440,92
35754412,1216,-516,-13952,119,333,90
35760312,1032,-488,-13632,114,213,82
35765112,888,-516,-13472,104,321,99
35859112,1172,-496,-13644,103,339,98
35936512,1016,-384,-13624,107,309,113
35948711,1144,-444,-13524,83,311,114
35950212,1144,-444,-13524,83,311,114
35955111,1052,-524,-13452,114,328,108
35959911,1084,-512,-13428,86,342,89
35964811,1092,-400,-13604,112,333,116
35969611,984,-464,-13512,95,313,100
35974411,960,-464,-13428,114,315,120
35980311,1072,-448,-13356,116,359,82
35985111,1056,-476,-13576,98,339,107
35989911,1040,-368,-13516,102,350,91
35994711,928,-736,-13792,150,371,84
35999511,1064,-424,-12704,78,131,92
36004411,1528,-204,-14464,71,772,125
36010311,1212,-664,-13232,-50,10,81
36015111,712,-244,-13208,354,459,119
36019911,692,-596,-14112,-6,88,105
36112512,1008,-500,-13104,126,359,98
36115112,1216,-388,-13380,31,446,116
36119912,1140,-300,-13668,114,286,88
36194012,896,-428,-13496,96,332,96
36195512,896,-428,-13496,96,332,96
36200412,1144,-440,-13548,72,380,103
36205212,1412,-448,-13748,121,398,92
36210012,1096,-576,-13932,114,218,86
36214912,1032,-408,-13252,117,299,114
36219712,1012,-324,-13440,71,382,101
36224512,1104,-292,-13708,98,400,100
36230412,1108,-328,-13544,107,297,91
36235212,988,-420,-13428,105,241,104
36240012,888,-584,-13308,77,356,88
36244812,1156,-584,-13900,94,498,124
36249612,1240,-504,-13464,127,227,95
36254512,1200,-424,-13472,143,270,117
36260412,996,-304,-14172,81,262,111
36350812,1160,-424,-13420,89,366,99
36354612,1144,-424,-13772,90,364,83
36359412,1080,-408,-13592,130,346,95
36365412,928,-384,-13588,98,265,115
36370212,912,-544,-13328,120,388,122
36444012,1108,-316,-13468,149,449,94
36457412,996,-408,-12920,157,361,108
36460012,980,-496,-13756,91,328,90
36464812,1100,-516,-13440,171,369,98
36469612,1100,-504,-13696,79,328,85
36474412,1192,-484,-13588,118,314,100
36480312,1100,-476,-13440,78,339,105
36485112,1184,-336,-13736,143,364,116
36489912,1100,-380,-13488,71,325,97
36494812,1040,-412,-13696,150,346,107
36499612,1096,-440,-13392,100,347,72
36504412,1024,-448,-13448,95,354,112
36510312,1184,-464,-13624,105,357,125
36626811,1064,-492,-13532,117,327,86
36629511,1084,-420,-13528,124,326,107
36635411,1100,-484,-13472,118,320,80
36640211,1108,-372,-13592,97,347,97
36645011,964,-456,-13568,92,319,92
36649811,1032,-336,-13544,108,307,116
36654611,964,-496,-13548,91,321,96
36728812,948,-352,-13576,107,345,95
36730412,948,-352,-13576,107,345,95
36735212,1004,-540,-13608,113,357,112
36740012,1160,-524,-13456,103,334,92
36744812,1176,-352,-13692,98,340,104
36749612,956,-348,-13472,101,329,100
36754412,1108,-352,-13368,107,337,85
36760312,960,-472,-13448,102,332,78
36765112,1072,-476,-13636,100,333,87
36770012,1168,-512,-13496,125,352,96
36774812,1084,-468,-13556,85,332,93
36865812,1052,-516,-13512,126,312,88
36869712,1036,-496,-13528,128,326,101
36874512,1052,-340,-13712,100,328,91
36880412,1136,-420,-13672,138,325,122
36885212,1096,-468,-13572,108,324,87
36890112,1140,-484,-13408,94,330,110
36894912,1124,-496,-13656,89,340,96
36899712,1000,-388,-13556,102,334,71
36904512,1012,-448,-13560,125,343,98
36979010,1020,-344,-13528,90,330,101
36992511,1084,-464,-13408,103,305,81
36995111,1100,-456,-13488,124,313,122
37000011,1040,-408,-13732,114,342,101
37004811,952,-400,-13532,95,329,117
37009611,1040,-448,-13432,93,341,78
37014411,1104,-404,-13520,98,339,99
37020311,988,-496,-13332,92,339,79
37025111,1060,-424,-13564,97,317,114
37116810,1060,-516,-13408,110,317,111
37119510,1100,-372,-13612,110,329,110
37124412,1016,-464,-13560,113,327,122
37130312,1068,-372,-13452,102,311,105
37135112,1108,-444,-13668,76,343,100
37139912,1092,-392,-13376,116,358,101
37144712,1032,-456,-13604,81,333,100
37149512,1140,-432,-13488,119,332,100
37154412,1016,-436,-13340,88,328,101
37160312,964,-496,-13756,115,301,109
37165112,1004,-480,-13348,99,329,101
37239811,1116,-464,-13532,109,329,96
37244811,1056,-360,-13572,100,320,106
37249611,1016,-448,-13600,86,346,111
37254411,964,-508,-13564,103,337,91
37260311,1088,-364,-13472,117,332,98
37265111,1064,-452,-13548,120,323,103
37356210,1076,-356,-13452,88,345,84
37360112,1072,-544,-13552,95,323,97
37364912,1072,-424,-13488,103,339,115
37369712,1096,-584,-13612,101,318,129
37374612,1064,-332,-13484,80,327,99
37379412,1052,-352,-13444,117,338,105
37385312,1092,-376,-13524,105,305,118
37390112,1096,-380,-13584,101,342,85
37394912,1008,-320,-13708,116,325,99
37399712,1092,-428,-13504,109,317,90
37404512,1080,-476,-13532,100,345,94
37410412,1080,-480,-13528,96,338,84
37415312,1064,-488,-13636,128,312,90
37420112,1124,-440,-13580,86,311,98
37494710,1068,-504,-13600,110,327,91
37508110,1044,-468,-13676,108,317,100
37509614,996,-424,-13504,91,303,88
37514412,1180,-500,-13620,126,320,81
37632412,1144,-432,-13712,94,356,118
37635112,1072,-472,-13596,108,308,89
37640012,1056,-480,-13536,117,322,113
37644812,1112,-444,-13520,108,358,103
37649612,1088,-428,-13712,95,335,109
37654512,1044,-412,-13640,106,313,102
37660412,1072,-432,-13540,73,309,90
37665212,1036,-436,-13468,94,335,95
37670012,1116,-400,-13448,110,359,86
37674812,1120,-412,-13408,112,307,94
37679612,1024,-380,-13568,106,312,120
37684412,976,-472,-13568,117,339,95
37690312,1052,-436,-13496,86,360,111
37695212,956,-460,-13588,96,317,97
37700012,1104,-468,-13736,82,326,90
37704812,1072,-424,-13644,83,308,97
37779012,1040,-408,-13640,97,349,104
37780512,1040,-408,-13640,97,349,104
37871910,968,-376,-13536,96,331,93
37874512,1124,-412,-13644,85,337,116
37880412,1072,-472,-13576,104,339,98
37885212,1096,-444,-13628,104,322,109
37890012,1156,-448,-13664,121,299,103
37894812,976,-368,-13368,97,332,80
37899612,1036,-424,-13448,81,312,93
37904512,1072,-352,-13292,93,337,103
37910412,1084,-432,-13472,104,312,68
37915212,1068,-440,-13528,81,326,93
37920012,1076,-524,-13592,86,347,92
37924812,1100,-464,-13572,108,354,100
37952711,1012,-508,-13556,110,306,73
37955311,1200,-408,-13512,116,338,100
37960111,1080,-492,-13640,92,327,79
37965011,1080,-512,-13428,122,337,91
37969811,1064,-408,-13568,131,340,101
37974611,1160,-492,-13384,101,345,94
38141910,1144,-424,-13640,98,302,81
38144610,1140,-424,-13332,111,329,123
38149410,1032,-516,-13432,91,338,106
38155411,1144,-400,-13396,111,358,99
38160211,1264,-468,-13576,103,332,103
38165011,1020,-304,-13620,109,328,103
38169811,960,-484,-13544,86,325,88
38174611,1088,-400,-13380,104,382,102
38179411,1052,-384,-13448,103,335,100
38185311,1052,-400,-13488,110,314,118
38190111,976,-472,-13520,108,296,95
38195011,1080,-396,-13536,108,339,88
38199811,1088,-424,-13612,88,353,97
38204611,1044,-440,-13748,112,306,103
38209411,1040,-508,-13544,121,303,74
38215311,1072,-416,-13572,111,336,116
38306812,976,-532,-13560,108,318,97
38309521,1180,-428,-13624,80,350,110
38315412,1064,-464,-13476,101,294,101
38320212,964,-448,-13488,115,299,90
38394812,948,-508,-13544,110,350,81
38399712,1036,-448,-13552,92,341,90
38404512,1180,-424,-13420,102,335,109
38409412,1080,-484,-13592,81,322,102
38415312,1164,-420,-13504,109,307,93
38420112,1076,-340,-13528,100,343,79
38424912,1032,-508,-13548,105,327,99
38438411,1052,-392,-13508,109,303,84
38439911,1144,-496,-13336,104,324,95
38444811,1120,-424,-13468,73,339,91
38449611,1124,-344,-13672,106,326,82
38454411,1084,-396,-13704,129,305,97
38460411,972,-356,-13452,131,303,86
38465211,992,-448,-13468,89,346,102
38558212,1116,-532,-13300,125,351,105
38559812,1180,-404,-13452,107,367,104
38564812,1120,-376,-13592,93,382,82
38569612,1212,-300,-13696,119,275,94
38574412,1056,-420,-13468,119,285,90
38580412,956,-516,-13496,87,391,84
38678310,1112,-376,-13576,63,403,78
38679810,1248,-340,-13852,101,316,83
38684812,960,-496,-13244,130,279,119
38689612,880,-396,-13348,112,348,113
38694412,1128,-456,-13512,76,400,92
38700412,1172,-472,-13720,72,339,81
38705212,1168,-412,-13640,128,255,95
38710012,976,-460,-13408,99,292,95
38714812,988,-512,-13588,90,395,114
38719612,1216,-328,-13616,69,398,71
38724412,1192,-516,-13736,109,271,100
38730312,976,-448,-13404,110,262,94
38821210,1036,-476,-13444,95,307,99
38825010,1032,-468,-13432,97,365,103
38829810,1172,-364,-13776,99,364,101
38834711,1000,-480,-13740,89,308,94
38839511,936,-416,-13572,106,320,97
38845411,948,-432,-13404,106,352,88
38850211,1152,-508,-13524,97,347,115
38855011,1176,-516,-13668,99,300,92
38928412,1092,-404,-13632,125,320,125
38941812,1052,-492,-13708,103,338,85
38944412,1120,-416,-13520,95,316,103
38950312,1132,-448,-13504,89,312,103
38955112,1080,-492,-13628,85,324,110
38959912,1068,-336,-13572,98,333,82
38964712,1072,-368,-13644,105,327,85
38969512,1020,-424,-13452,103,315,90
38975412,964,-548,-13336,98,335,111
38980312,1128,-444,-13584,103,321,114
39071512,1012,-420,-13568,106,323,116
39075412,1092,-392,-13508,112,333,92
39080212,1104,-440,-13524,130,317,124
39085012,928,-424,-13504,83,317,89
39089812,1140,-444,-13596,88,340,94
39094612,1096,-528,-13492,128,324,97
39099412,980,-300,-13548,91,333,86
39105312,1144,-488,-13456,91,322,99
39110212,1036,-440,-13544,88,364,74
39115012,984,-536,-13684,123,322,75
39189010,1080,-392,-13492,110,340,106
39190612,948,-436,-13536,108,337,81
39195412,1056,-476,-13540,138,338,87
39200212,1020,-368,-13580,115,337,100
39205012,1080,-524,-13596,96,317,102
39209812,956,-432,-13588,106,334,100
39214612,1064,-484,-13524,110,330,107
39219412,1076,-436,-13504,105,345,82
39310610,1060,-428,-13512,111,301,109
39314510,1060,-476,-13492,114,306,99
39320412,1052,-476,-13604,108,349,120
39325212,1176,-488,-13620,79,343,106
39330012,1108,-408,-13536,85,358,99
39334912,1236,-484,-13584,96,324,101
39339712,1116,-388,-13404,98,362,114
39344512,1052,-444,-13556,131,332,121
39350412,1088,-452,-13532,111,312,101
39355212,976,-296,-13520,86,321,107
39360012,1080,-500,-13564,123,364,111
39364812,1080,-500,-13676,122,339,97
39439610,1068,-408,-13540,105,329,89
39453010,988,-476,-13460,108,346,92
39454510,1200,-532,-13568,137,338,105
39459412,1092,-456,-13456,117,315,111
39465312,1188,-420,-13592,91,342,99
39470112,1100,-348,-13516,99,335,92
39562610,1228,-356,-13512,107,349,83
39565312,1168,-416,-13480,116,339,93
39570112,1024,-388,-13672,115,311,118
39574912,916,-448,-13560,110,334,92
39579712,1104,-404,-13596,114,357,91
39584512,1152,-472,-13496,118,340,110
39590412,1144,-468,-13648,127,319,115
39595212,1120,-388,-13576,91,310,102
39600012,1068,-372,-13424,131,342,84
39604912,1212,-392,-13764,127,322,104
39609712,1016,-444,-13616,108,276,102
39614512,1064,-368,-13608,93,326,87
39620412,920,-492,-13668,119,359,109
39625212,1068,-420,-13536,127,360,79
39723812,1100,-532,-13440,90,321,108
39725412,1080,-492,-13616,104,341,99
39730312,1044,-484,-13584,108,333,102
39735112,1140,-492,-13504,98,328,93
39826512,1176,-440,-13484,99,308,94
39829412,1176,-440,-13484,99,308,94
39835312,1084,-436,-13528,115,341,92
39840112,1072,-456,-13416,116,337,83
39844912,1132,-452,-13568,86,291,111
39849712,1156,-440,-13508,88,338,102
39854512,1052,-400,-13632,96,345,93
39859412,1052,-400,-13632,96,345,93
39865312,1168,-436,-13560,116,311,87
39870112,1020,-388,-13576,112,325,88
39874912,948,-440,-13612,85,333,84
39879712,1168,-472,-13720,102,338,77
39884512,1064,-480,-13436,136,353,105
39890412,1100,-416,-13552,106,356,100
39895212,1004,-472,-13552,120,333,102
39900112,1028,-416,-13596,94,341,100
39974311,1000,-452,-13412,110,315,100
39987512,1076,-384,-13444,126,330,110
40079612,1136,-564,-13640,109,309,120
40084512,1136,-564,-13640,109,309,120
40089412,1148,-348,-13640,86,329,106
40095312,1184,-444,-13468,125,345,114
40100112,1052,-508,-13720,88,303,100
40104912,1024,-396,-13340,84,353,93
40109712,1080,-328,-13488,99,350,88
40114512,1080,-328,-13488,99,350,88
40119412,992,-460,-13532,111,325,97
40125312,1024,-384,-13492,90,320,109
40130112,1112,-388,-13416,94,330,99
40134912,1028,-444,-13488,99,350,89
40139712,1144,-520,-13500,120,340,104
40144512,1144,-520,-13500,120,340,104
40150412,1148,-400,-13612,95,333,100
40155212,1128,-532,-13504,116,313,92
40242512,1128,-532,-13504,116,313,92
40245312,1152,-384,-13488,113,310,100
40321110,1088,-340,-13472,151,304,95
40324910,1020,-412,-13532,82,301,93
40329812,1136,-460,-13620,110,353,100
40334612,1136,-460,-13620,110,353,100
40339412,988,-364,-13484,92,384,100
40345312,1132,-412,-13584,90,325,104
40350112,1084,-504,-13696,96,325,115
40354912,1080,-324,-13384,139,345,96
40359712,1128,-564,-13524,110,301,91
40364512,1128,-564,-13524,110,301,91
40369412,1132,-436,-13448,86,353,123
40375312,1028,-484,-13492,153,298,109
40380112,1080,-384,-13512,101,318,113
40384912,1180,-356,-13752,107,350,107
40389712,928,-660,-13536,81,360,93
40482712,1008,-420,-13372,98,320,112
40496212,1080,-448,-13400,92,352,118
40500012,1044,-484,-13616,72,315,77
40504912,1128,-460,-13360,83,332,86
40509712,1128,-460,-13360,83,332,86
40584210,1096,-412,-13464,107,355,82
40585810,1056,-404,-13504,76,300,95
40589512,1056,-404,-13504,76,300,95
40595412,1136,-552,-13712,83,324,85
40600212,1008,-584,-13492,119,330,96
40605012,1064,-452,-13568,75,384,106
40609812,1176,-488,-13644,72,334,114
40614612,1176,-488,-13644,72,334,114
40619512,1116,-304,-13412,119,339,88
40625412,1016,-468,-13328,116,337,104
40630212,1184,-476,-13616,87,360,91
40635012,1024,-512,-13588,107,303,112
40639812,920,-520,-13456,112,305,87
40644612,1304,-460,-14132,27,309,100
40759012,1368,-384,-15224,233,340,96
40760612,904,-608,-12048,-40,161,79
40765412,1180,-420,-14256,179,399,86
40770312,1028,-444,-13128,59,411,66
40775112,1124,-364,-13592,45,321,100
40779912,1128,-268,-13216,166,336,101
40854112,1004,-328,-13588,95,276,87
40855612,1120,-284,-13404,129,315,101
40859412,1120,-284,-13404,129,315,101
40865312,1228,-548,-13436,85,346,86
40870112,1036,-464,-13792,81,349,100
40875012,988,-492,-13420,112,295,99
40879812,988,-492,-13420,112,295,99
40884612,1064,-432,-13340,128,333,117
40889412,1172,-332,-13484,85,337,100
40895312,1128,-332,-13680,137,330,133
40900112,1176,-528,-13624,112,309,92
40904912,1064,-372,-13504,106,342,92
40998512,1412,-300,-11904,159,625,88
41011910,816,-624,-13720,30,381,98
41014510,816,-624,-13720,30,381,98
41020412,1084,-332,-13960,-8,228,68
41025212,1044,-300,-12964,211,260,120
41030012,1128,-452,-13324,24,295,92
41034912,1128,-452,-13324,24,295,92
41039712,1352,-392,-13360,144,596,109
41113711,-680,1664,-3720,730,733,110
41115311,1616,1392,-23212,493,1317,211
41120111,1564,-516,-4852,462,-1159,-5
41124911,1564,-516,-4852,462,-1159,-5
41129711,1956,-1884,-18040,412,875,181
41134511,-360,-2368,-14292,-1793,285,91
41140411,1316,-1884,-10096,436,34,133
41145211,2136,-68,-15940,-309,-1088,77
41150011,580,-812,-11132,-416,847,136
41154911,580,-812,-11132,-416,847,136
41159711,912,-592,-13520,20,318,94
41250512,1136,-404,-13804,167,443,89
41255412,784,-552,-13532,86,208,107
41260312,1028,-324,-13504,84,324,99
41265112,1160,-444,-13356,85,412,104
41269912,1160,-444,-13356,85,412,104
41274712,1412,-396,-13896,130,428,98
41279512,1296,-448,-13520,141,229,96
41285412,808,-460,-13340,75,349,95
41290312,984,-500,-13644,71,432,99
41365310,1056,-520,-13572,120,268,92
41370110,924,-620,-13440,99,346,90
41374912,924,-620,-13440,99,346,90
41379712,1220,-540,-13608,93,413,73
41384512,1224,-404,-13664,106,311,110
41390412,1004,-452,-13256,86,314,93
41395212,1108,-380,-13456,81,398,94
41400012,1040,-620,-13524,94,353,84
41489710,1040,-620,-13524,94,353,84
41513812,1228,-544,-13764,130,324,89
41515312,1160,-524,-13608,116,297,115
41520312,928,-340,-13536,119,322,92
41525112,928,-340,-13536,119,322,92
41529912,988,-480,-13564,95,371,94
41534712,964,-400,-13536,97,334,90
41539512,1164,-352,-13584,109,307,98
41545412,1040,-368,-13520,130,365,95
41550312,1084,-436,-13452,110,357,101
41555112,1084,-436,-13452,110,357,101
41559912,1068,-448,-13560,119,284,101
41633769,1064,-344,-13492,104,312,131
41635310,1124,-456,-13560,73,332,65
41640110,1124,-456,-13560,73,332,65
41644912,1044,-560,-13740,108,339,99
41649712,1036,-472,-13516,91,312,116
41654512,1208,-508,-13516,101,327,96
41659412,1176,-356,-13464,83,349,92
41776011,1080,-568,-12820,87,464,98
41779811,1080,-568,-12820,87,464,98
41784611,1256,-384,-14228,-99,588,75
41789411,1128,-308,-14632,223,257,81
41795311,832,-476,-13036,104,311,114
41800111,832,-476,-13036,104,311,114
41804911,976,-512,-13092,64,494,101
41809711,1168,-424,-14364,99,401,85
41814611,1064,-432,-13568,156,265,99
41819411,1016,-432,-13512,133,209,90
41825311,1012,-460,-13828,62,437,78
41830111,1012,-460,-13828,62,437,78
41834911,1200,-328,-13892,113,352,101
41908612,1024,-460,-14012,66,367,102
41910112,1024,-460,-14012,66,367,102
41915012,1044,-452,-13588,127,268,114
41919812,1012,-356,-13552,137,287,89
41924712,1060,-512,-13388,77,319,106
42027510,1120,-472,-13316,100,354,105
42030312,1120,-472,-13316,100,354,105
42035112,1228,-324,-13916,92,342,106
42039912,1048,-476,-13268,132,299,101
42044812,1004,-456,-13684,116,332,84
42049612,956,-492,-13472,103,284,98
42054412,932,-420,-13408,100,401,86
42060312,952,-244,-13700,96,355,119
42065112,1184,-384,-13556,114,319,103
42069912,1200,-336,-13412,129,339,105
42074712,1120,-436,-13612,97,338,88
42079512,1032,-476,-13544,131,337,81
42084412,984,-508,-13652,98,281,104
42090312,1024,-520,-13444,118,326,88
42095112,1044,-508,-13488,75,348,93
42169611,988,-400,-13360,39,386,119
42174611,1156,-372,-13720,134,338,105
42265112,1080,-440,-13316,61,362,90
42270312,1100,-356,-13660,122,355,113
42275112,1104,-468,-13620,90,354,119
42279912,1088,-532,-13564,108,314,94
42284712,1108,-360,-13468,86,346,103
42289512,1068,-508,-13456,154,334,81
42295412,1152,-320,-13760,100,324,112
42300312,1152,-320,-13760,100,324,112
42305112,1044,-408,-13220,130,328,107
42309912,1056,-528,-13540,108,334,105
42314712,1216,-476,-13464,115,336,111
42319512,1132,-492,-13648,108,319,106
42325412,1120,-412,-13664,97,316,99
42330212,980,-520,-13488,115,339,102
42335012,1108,-364,-13544,127,350,98
42339912,1052,-348,-13564,89,328,89
42430610,1120,-300,-13472,85,340,97
42445112,1024,-448,-13568,105,350,129
42522410,1100,-396,-13684,90,338,96
42525110,1100,-396,-13684,90,338,96
42529910,1032,-512,-13488,117,341,75
42534811,1076,-356,-13516,112,317,89
42539611,1176,-444,-13580,95,318,113
42544411,1104,-492,-13524,76,343,93
42550311,1068,-468,-13508,99,363,92
42555111,1152,-400,-13520,95,337,81
42559911,1120,-360,-13628,102,344,101
42564711,1108,-404,-13412,122,315,89
42569511,1084,-436,-13572,125,334,101
42574411,1068,-416,-13424,120,337,100
42580311,1060,-384,-13708,109,334,105
42585111,1044,-424,-13644,100,348,112
42589911,1048,-372,-13592,120,351,123
42594711,1000,-424,-13452,129,336,96
42684810,1076,-340,-13588,113,283,85
42689910,1084,-464,-13540,77,346,90
42694710,1084,-428,-13508,115,361,82
42699510,1084,-444,-13520,85,358,94
42800311,1052,-620,-13556,119,325,98
42805211,1076,-356,-13552,91,313,132
42810011,960,-416,-13496,100,356,92
42814811,1064,-496,-13504,88,327,90
42819611,1044,-320,-13536,102,367,112
42824511,1028,-592,-13304,90,319,112
42830411,1140,-468,-13560,102,344,109
42835211,880,-328,-13640,107,322,80
42840011,1172,-436,-13512,128,324,88
42844811,924,-472,-13496,118,353,91
42849611,1028,-464,-13376,100,321,107
42854411,1196,-488,-13496,108,293,116
42860311,1132,-344,-13608,115,343,95
42949410,1132,-344,-13608,115,343,95
42961611,1064,-588,-13620,117,314,102
42965311,1064,-588,-13620,117,314,102
42970111,1116,-384,-13496,64,291,96
42974911,1072,-352,-13440,66,409,104
42979711,952,-384,-13668,130,295,79
42984511,1136,-388,-13368,86,312,82
43059012,1192,-492,-13696,99,342,97
43060512,1192,-492,-13696,99,342,97
43064412,1168,-420,-13484,124,284,104
43070312,1024,-432,-13364,124,347,124
43075112,1092,-492,-13460,119,366,94
43079912,1148,-352,-13668,112,356,110
43084712,1060,-328,-13684,103,281,104
43089512,988,-420,-13540,99,347,123
43094412,1120,-472,-13576,82,379,83
43100312,1144,-368,-13696,113,354,105
43105112,1116,-532,-13636,116,278,81
43109912,840,-576,-13560,132,270,107
43198416,840,-576,-13560,132,270,107
43200016,840,-576,-13560,132,270,107
43204812,1100,-336,-13820,48,438,112
43209612,1324,-356,-13204,118,307,84
43214512,1100,-196,-13628,81,336,85
43220412,880,-508,-13684,173,131,114
43225212,1052,-328,-13044,63,401,108
43230012,1216,-544,-13736,73,482,98
43304510,960,-500,-13656,120,104,95
43309410,912,-508,-13364,96,300,108
43315310,816,-532,-13528,47,511,106
43320211,1220,-524,-13964,181,350,84
43325011,1368,-380,-13508,91,220,97
43329811,936,-676,-13536,100,317,109
43334611,1120,-84,-13280,81,432,107
43339411,1352,-516,-13460,185,366,84
43345311,1288,-100,-13704,90,216,84
43437210,852,-460,-13408,78,316,111
43450512,1288,-340,-13604,77,361,113
43455512,1180,-424,-13740,145,233,103
43460312,1008,-396,-13340,140,272,103
43465112,992,-620,-13416,86,404,98
43469912,1068,-376,-13824,71,408,115
43474712,1012,-496,-13908,113,294,87
43479512,904,-384,-13432,119,313,115
43484412,1016,-420,-13208,104,358,88
43490312,1276,-324,-13620,95,373,95
43495112,1256,-396,-13528,117,297,90
43569011,976,-508,-13376,148,290,102
43570511,976,-508,-13376,148,290,102
43575411,1088,-752,-13468,126,296,92
43580211,1112,-352,-13640,100,341,76
43585011,1160,-264,-13440,69,301,91
43589811,948,-568,-13620,96,341,91
43594611,932,-664,-13536,60,424,89
43688210,1180,-372,-13712,54,341,83
43689710,1180,-372,-13712,54,341,83
43694612,932,-324,-13572,93,361,101
43699412,924,-572,-13328,122,359,100
43705412,1092,-364,-13460,167,303,109
43710212,1092,-420,-13472,107,246,89
43715012,1176,-532,-13636,77,319,110
43719812,1188,-216,-13452,70,426,89
43724612,956,-640,-13532,125,381,94
43729412,1244,-348,-13244,127,303,94
43735412,1120,-596,-13560,115,226,108
43740212,992,-396,-13652,52,340,106
43745012,972,-312,-13656,42,431,112
43842811,1100,-540,-13696,68,315,91
43844411,1100,-540,-13696,68,315,91
43849411,1104,-388,-13728,50,396,109
43855411,948,-432,-13556,117,393,73
43860211,1040,-520,-13308,143,309,106
43950312,992,-320,-13500,104,349,99
43981810,1084,-520,-13496,94,342,84
43984510,1084,-520,-13496,94,342,84
43990410,1048,-352,-13488,113,300,103
43995311,1100,-456,-13404,97,320,84
44000111,1024,-468,-13460,97,358,105
44004911,1044,-328,-13460,97,331,98
44009711,1016,-380,-13660,127,329,93
44014511,1052,-452,-13424,103,338,116
44020411,1080,-520,-13656,87,332,115
44025211,1084,-364,-13520,115,365,107
44030011,1048,-460,-13580,127,318,90
44034911,1156,-564,-13496,95,311,87
44039711,964,-380,-13508,99,327,93
44044511,1028,-532,-13532,99,328,82
44118412,1128,-480,-13604,116,310,109
44119912,1128,-480,-13604,116,310,109
44124912,1088,-416,-13484,111,331,102
44129712,1084,-420,-13672,116,325,80
44219612,1084,-420,-13672,116,325,80
44224512,1116,-516,-13556,102,336,94
44230412,1060,-408,-13516,94,346,104
44235312,1108,-520,-13540,99,332,95
44240112,1108,-456,-13572,106,338,89
44244912,1008,-564,-13500,79,321,89
44249712,1060,-404,-13404,114,327,92
44254512,1048,-264,-13564,86,333,98
44260412,1092,-452,-13516,99,380,91
44265212,1108,-412,-13636,101,307,94
44270012,1112,-428,-13504,116,285,104
44274912,1128,-376,-13624,100,305,95
44279712,1056,-408,-13560,106,359,108
44284512,1072,-396,-13644,88,336,107
44290412,1052,-508,-13496,124,324,96
44295212,1028,-496,-13496,117,342,64
44462212,1012,-456,-13456,116,292,112
44478912,1120,-496,-13520,108,356,97
44480412,1120,-496,-13520,108,356,97
44485312,988,-536,-13288,117,330,118
44490112,972,-416,-13612,105,333,85
44494912,984,-452,-13464,97,342,85
44499812,1204,-480,-13480,82,293,105
44504612,1120,-496,-13640,98,320,106
44509412,1088,-452,-13620,93,332,91
44515312,948,-464,-13556,117,351,100
44520112,1056,-388,-13364,129,327,92
44524912,1052,-436,-13716,108,314,121
44529712,1048,-424,-13508,99,343,120
44534512,1044,-440,-13444,101,337,100
44539412,1024,-404,-13408,96,365,92
44545312,1096,-420,-13556,120,323,102
44550112,976,-400,-13580,97,312,111
44644212,1080,-360,-13560,102,347,92
44645812,1080,-360,-13560,102,347,92
44649512,1200,-388,-13672,105,360,104
44723911,960,-408,-13476,102,310,89
44725511,960,-408,-13476,102,310,89
44730311,1088,-384,-13460,115,345,93
44735111,1056,-448,-13556,103,326,115
44740011,1076,-416,-13376,86,355,93
44744811,972,-448,-13648,109,323,91
44749611,1004,-512,-13532,115,330,104
44754411,1016,-428,-13560,101,318,98
44760311,1024,-356,-13528,95,333,93
44765111,1144,-532,-13520,89,332,108
44769911,1048,-388,-13328,87,338,108
44774711,1092,-492,-13532,103,323,125
44779611,1220,-480,-13500,97,330,81
44784411,1128,-384,-13552,126,330,91
44790311,1000,-472,-13592,98,327,82
44908112,1092,-424,-13556,91,316,90
44909712,1092,-424,-13556,91,316,90
44914512,1112,-404,-13504,100,343,97
44919412,1128,-432,-13436,101,308,103
44925312,1104,-392,-13592,118,353,99
45013019,1160,-424,-13604,109,336,94
45014619,1160,-424,-13604,109,336,94
45019412,1120,-504,-13656,112,342,97
45025312,1104,-504,-13520,99,343,94
45030112,1092,-540,-13480,106,345,86
45034912,1072,-516,-13536,82,346,106
45039712,1040,-460,-13528,102,349,108
45044512,932,-404,-13496,94,325,96
45049412,1052,-384,-13568,104,333,97
45055312,976,-324,-13644,72,320,80
45060112,1040,-464,-13552,81,354,116
45064912,1008,-412,-13428,103,327,102
45069712,1052,-452,-13616,124,314,99
45159710,1016,-432,-13600,103,347,95
45164510,1120,-468,-13528,104,324,103
45170412,1076,-512,-13496,86,344,109
45175212,1048,-524,-13572,91,321,81
45180012,1048,-472,-13468,99,305,105
45184812,1132,-424,-13548,100,310,62
45189612,1104,-396,-13536,103,349,96
45264912,1056,-380,-13360,92,334,89
45269812,1104,-476,-13480,89,329,73
45274612,1088,-524,-13476,115,329,104
45279412,1032,-388,-13756,68,351,114
45285312,1056,-244,-13620,66,383,105
45290112,1144,-208,-13460,114,331,107
45294912,1068,-424,-13416,143,335,99
45299712,1132,-536,-13740,157,299,107
45304512,1072,-632,-13740,128,329,108
45309412,1092,-284,-13612,56,297,105
45399112,1092,-284,-13612,56,297,105
45400712,1092,-284,-13612,56,297,105
45404412,1056,-480,-13620,68,368,90
45410312,1064,-332,-13580,71,404,86
45415212,936,-468,-13572,118,351,106
45420012,1092,-468,-13280,113,319,115
45424812,1264,-236,-13480,152,258,110
45434811,1056,-192,-13724,50,378,105
45439711,908,-460,-13568,121,402,74
45444511,1128,-412,-13348,149,327,102
45519312,1064,-332,-13488,119,313,107
45520912,1064,-332,-13488,119,313,107
45524612,980,-528,-13560,113,348,90
45529512,1108,-352,-13476,87,366,104
45535412,1128,-424,-13320,103,336,102
45540212,1060,-448,-13528,120,312,98
45545012,936,-448,-13440,103,311,93
45549812,1044,-424,-13492,131,326,119
45554612,1128,-368,-13660,90,316,100
45647821,1084,-336,-13500,87,341,89
45649421,1084,-336,-13500,87,341,89
45654412,1144,-412,-13572,117,320,98
45660312,1016,-392,-13384,107,330,115
45665112,1044,-516,-13812,113,320,107
45669912,956,-432,-13548,91,324,105
45674712,1072,-484,-13604,95,302,89
45679612,1092,-516,-13512,92,351,70
45684412,1096,-364,-13820,94,336,93
45690312,1144,-412,-13616,132,327,96
45695112,1100,-424,-13516,84,336,79
45769311,1032,-328,-13520,111,337,128
45770911,1032,-328,-13520,111,337,128
45774611,1244,-404,-13676,83,330,117
45779511,1076,-416,-13524,102,333,106
45785411,1016,-464,-13716,106,347,122
45790211,1084,-532,-13420,101,302,104
45795011,1104,-420,-13728,111,308,102
45910910,1072,-436,-13548,112,337,118
45914710,1148,-468,-13464,128,345,104
45919612,1016,-448,-13380,94,327,106
45924412,1112,-352,-13660,137,361,104
45941511,1108,-420,-13328,78,340,106
45945211,1072,-396,-13484,142,346,106
45950111,992,-396,-13480,110,330,97
45954911,992,-444,-13596,83,307,109
45959711,1028,-340,-13468,91,348,97
45964511,1088,-476,-13604,93,349,83
45970411,1140,-520,-13420,103,319,96
45975211,1116,-388,-13708,95,311,85
45980111,1076,-408,-13580,103,319,91
46055110,1092,-376,-13488,105,323,113
46059910,1120,-372,-13456,114,339,114
46064712,1052,-472,-13528,89,313,121
46069512,1128,-456,-13824,110,366,109
46075412,1132,-484,-13548,95,325,104
46166710,1076,-508,-13624,86,321,96
46170412,1068,-380,-13684,91,340,94
46175212,1124,-408,-13592,105,355,94
46180012,992,-452,-13548,99,339,82
46184812,1024,-472,-13548,126,308,103
46189612,1076,-440,-13600,83,322,98
46194412,1200,-468,-13436,99,325,85
46200412,1096,-548,-13544,85,349,84
46205212,1128,-436,-13700,109,330,124
46210012,1064,-404,-13696,95,344,107
46214812,1072,-420,-13468,83,348,91
46219612,1148,-396,-13448,88,328,82
46224412,1148,-472,-13504,114,312,102
46230312,1072,-492,-13564,97,346,99
46235112,1064,-380,-13548,67,345,100
46309512,1124,-436,-13556,106,344,109
46314412,1028,-388,-13508,88,329,76
46405910,1100,-564,-13480,106,320,95
46409712,1044,-488,-13568,82,335,73
46414512,1032,-580,-13564,110,323,94
46420412,1096,-492,-13632,114,342,85
46425212,1116,-444,-13416,74,334,79
46438512,1220,-476,-13512,131,322,108
46440012,1220,-476,-13512,131,322,108
46444912,992,-396,-13480,115,301,99
46449712,1004,-396,-13648,91,307,97
46454512,1140,-460,-13536,71,344,85
46459412,1040,-428,-13580,81,365,93
46465312,1044,-456,-13472,109,316,95
46470112,1248,-436,-13440,93,333,100
46474912,1060,-496,-13612,106,325,90
46479712,1072,-436,-13508,94,310,88
46484512,1052,-416,-13596,106,333,107
46490412,1172,-480,-13544,108,325,84
46583811,1044,-400,-13536,102,350,89
46661512,1056,-348,-13400,65,314,122
46665312,1044,-336,-13436,120,366,88
46670112,1060,-420,-13440,97,334,100
46674912,1108,-476,-13664,116,303,83
46679712,1144,-412,-13564,78,319,103
46684512,1152,-496,-13696,90,346,109
46690412,1112,-440,-13540,116,364,96
46695212,1060,-420,-13352,132,337,99
46700012,1168,-432,-13420,87,335,92
46704912,944,-456,-13448,113,323,92
46709712,1024,-476,-13476,72,322,107
46714512,1116,-356,-13576,114,329,97
46720412,976,-496,-13420,80,341,114
46725212,1144,-452,-13520,131,317,74
46730012,1032,-504,-13492,138,325,95
46734812,1004,-452,-13604,93,328,101
46826112,1176,-408,-13420,115,318,90
46829812,1132,-468,-13620,127,320,96
46834612,1092,-492,-13500,105,341,103
46839412,1048,-460,-13520,83,350,97
46937711,1108,-412,-13500,130,353,104
46954910,1136,-472,-13600,73,316,97
46959710,1068,-480,-13452,104,362,80
46964612,1048,-396,-13552,97,330,102
46969412,1008,-468,-13564,87,343,67
46975312,1044,-400,-13724,100,345,81
46980112,1052,-384,-13628,120,365,87
46984912,1024,-400,-13524,103,308,95
46989712,992,-424,-13344,112,341,102
46994612,1144,-444,-13920,96,306,111
46999412,1020,-416,-13496,99,344,99
47005312,1104,-364,-13716,102,352,72
47010112,1012,-568,-13336,60,420,105
47014912,1080,-400,-13664,93,360,105
47103710,948,-428,-13496,102,346,89
47105310,948,-428,-13496,102,346,89
47110211,1164,-492,-13444,154,332,94
47115011,1096,-380,-13644,86,302,97
47119811,1016,-544,-13544,91,349,108
47124611,1016,-480,-13568,93,333,92
47198512,1080,-432,-13512,84,406,103
47200012,1080,-432,-13512,84,406,103
47204912,1128,-452,-13744,71,286,87
47209712,1104,-408,-13392,138,413,98
47214612,1204,-468,-13680,107,257,99
47219412,1148,-536,-13440,106,327,93
47225312,1016,-524,-13400,56,341,95
47230112,1004,-392,-13720,159,337,92
47234912,976,-416,-13388,55,315,118
47239712,1148,-372,-13724,125,339,106
47244612,1004,-472,-13308,9,346,106
47249412,1200,-316,-13720,177,326,83
47342910,1008,-596,-13480,103,319,124
47344512,1008,-596,-13480,103,319,124
47350412,1048,-516,-13420,96,332,77
47355212,1144,-400,-13636,107,344,92
47360012,1148,-368,-13532,99,353,100
47364812,1072,-284,-13468,114,328,99
47369612,1120,-288,-13444,83,303,117
47374512,1116,-352,-13652,104,325,110
47448911,1180,-376,-13444,124,328,103
47462512,1048,-588,-13536,90,353,93
47465112,1048,-588,-13536,90,353,93
47469912,972,-512,-13584,102,341,87
47474812,1064,-424,-13520,91,344,95
47479612,1044,-492,-13520,107,307,100
47484412,1148,-376,-13428,98,335,91
47490312,988,-468,-13480,99,361,117
47495112,1124,-476,-13556,95,343,104
47499912,1072,-488,-13420,100,324,97
47504712,1104,-448,-13488,91,348,116
47594512,1104,-448,-13488,91,348,116
47599512,1116,-348,-13632,91,326,111
47604412,1160,-376,-13508,90,342,108
47610312,1132,-380,-13612,94,324,113
47615112,1052,-372,-13368,104,327,99
47619912,1076,-440,-13516,99,328,100
47624712,1140,-432,-13424,102,326,97
47629512,1108,-424,-13540,80,360,102
47634412,988,-352,-13672,86,353,99
47708312,1100,-484,-13600,90,328,81
47709812,1100,-484,-13600,90,328,81
47714712,1100,-416,-13388,97,306,111
47719512,1080,-472,-13596,87,324,99
47725412,1168,-420,-13436,122,319,98
47730312,1052,-448,-13600,121,315,112
47735112,1108,-432,-13652,102,321,101
47739912,1020,-472,-13544,105,330,119
47833312,1128,-436,-13464,85,338,84
47834912,1128,-436,-13464,85,338,84
47839712,964,-440,-13684,117,374,111
47844512,1168,-424,-13508,96,316,89
47850412,964,-448,-13608,83,316,103
47855212,1084,-416,-13540,82,353,99
47860012,1100,-428,-13364,110,350,103
47864812,1052,-416,-13592,140,335,94
47869612,1140,-524,-13388,108,320,88
47874512,1056,-400,-13688,112,344,79
47880412,1088,-472,-13796,123,339,85
47885212,1012,-468,-13700,117,338,111
47983412,1160,-428,-13452,99,323,104
48007720,1028,-380,-13420,132,329,98
48010311,1028,-380,-13420,132,329,98
48015111,1060,-464,-13520,98,325,90
48020011,1128,-416,-13632,115,304,102
48024811,1072,-348,-13496,91,329,85
48029611,1024,-472,-13332,82,323,108
48119519,1024,-472,-13332,82,323,108
48124612,968,-396,-13484,92,376,87
48129412,1176,-388,-13516,110,342,92
48135312,1044,-620,-13624,127,273,94
48140112,884,-460,-13632,83,321,79
48144912,1020,-460,-13592,89,389,86
48149712,1080,-328,-13604,82,357,102
48154512,1124,-404,-13604,123,301,87
48160412,1052,-556,-13412,105,296,113
48165312,1208,-176,-13720,83,385,100
48170112,1192,-508,-13576,108,412,88
48174912,972,-520,-13516,84,249,75
48179712,1236,-352,-13756,133,334,99
48253512,1168,-332,-13772,104,306,97
48255012,1168,-332,-13772,104,306,97
48259912,1080,-472,-13340,107,313,108
48264712,1068,-416,-13596,82,319,118
48357412,1052,-320,-13480,102,351,85
48360012,1044,-360,-13692,103,333,98
48364812,1036,-448,-13396,90,323,90
48369612,1168,-532,-13516,105,348,105
48374412,1044,-476,-13248,111,357,111
48380312,1256,-452,-13728,116,277,99
48385112,1208,-516,-13492,105,297,107
48390012,944,-560,-13572,84,337,93
48394812,1100,-452,-13468,92,377,88
48399612,1112,-368,-13684,87,381,89
48404412,1088,-384,-13608,118,318,99
48410312,1160,-420,-13508,90,314,108
48415112,1052,-512,-13512,106,326,95
48419912,1164,-516,-13568,117,325,87
48424712,1072,-412,-13524,76,330,99
48434611,1064,-384,-13432,70,352,100
48511410,1140,-400,-13636,75,344,74
48515110,1004,-396,-13568,87,318,86
48607112,1060,-444,-13476,95,332,102
48609712,1056,-520,-13504,110,337,84
48614512,1068,-484,-13520,105,336,96
48620412,1112,-444,-13580,115,334,99
48625212,1080,-432,-13536,82,309,98
48630112,1048,-456,-13384,80,330,109
48634912,1100,-436,-13552,80,346,109
48639712,1100,-428,-13604,92,333,104
48644512,1096,-564,-13600,83,318,93
48650412,1056,-436,-13544,115,323,122
48655212,964,-424,-13452,80,332,119
48660012,1028,-468,-13496,79,351,100
48664812,1112,-400,-13592,111,351,104
48669712,984,-476,-13344,89,336,99
48674512,1076,-360,-13468,127,318,111
48680412,1092,-432,-13492,103,350,96
48773011,740,-572,-11396,23,131,70
48774611,740,-572,-11396,23,131,70
48849410,860,-492,-13880,-29,163,89
48855310,1120,-328,-12996,238,476,97
48860212,1224,-348,-14136,48,369,92
48865012,1212,-536,-12924,178,289,138
48869812,1008,-344,-13756,47,351,93
48874612,952,-548,-13632,96,270,107
48879412,996,-412,-13536,150,410,112
48885312,1024,-476,-13552,101,311,116
48890112,1108,-408,-13192,125,308,89
48894912,1112,-500,-13716,38,365,110
48899812,996,-316,-13584,117,338,115
48904612,1096,-436,-13492,98,352,95
48909412,1172,-436,-13656,131,262,88
48915312,996,-472,-13316,43,345,105
48920112,1000,-408,-13636,94,365,96
49036710,1212,-344,-13472,80,291,99
49052412,1076,-444,-13624,121,347,121
49055112,996,-476,-13600,89,290,108
49059912,1012,-388,-13640,137,351,108
49064712,992,-480,-13356,53,330,91
49138611,776,-412,-15000,210,555,110
49140111,776,-412,-15000,210,555,110
49145111,1020,-416,-12432,113,64,105
49149911,1212,-460,-13492,163,552,114
49154711,992,-500,-14424,-38,190,87
49159511,1132,-508,-12576,166,425,109
49165411,1200,-328,-14348,114,294,115
49170211,984,-424,-12912,145,244,109
49175111,1176,-488,-13524,17,542,105
49179911,1032,-392,-14500,151,184,82
49184711,964,-612,-12500,107,470,83
49189511,1128,-396,-14504,129,301,126
49195411,972,-472,-12520,40,339,111
49200211,1336,-552,-13784,152,359,111
49290512,1336,-552,-13784,152,359,111
49294412,1120,-408,-13488,79,285,100
49300312,980,-376,-13368,106,322,93
49305112,976,-408,-13480,73,381,98
49309912,1160,-332,-13664,112,319,103
49314712,1024,-420,-13232,115,319,108
49389511,1092,-424,-13496,113,335,112
49394411,1108,-432,-13388,97,347,87
49400311,1196,-332,-13956,114,300,110
49405211,1012,-536,-13292,115,325,109
49410011,1004,-396,-13644,134,340,96
49414811,1044,-424,-13232,72,336,100
49419611,1092,-448,-13736,117,320,91
49424411,1044,-444,-13512,47,335,97
49434112,1284,-356,-13404,89,365,107
49435612,1284,-356,-13404,89,365,107
49439412,1096,-356,-13616,122,289,109
49445312,1044,-340,-13424,119,326,99
49538910,1260,-536,-13492,134,401,89
49540512,1260,-536,-13492,134,401,89
49545312,1000,-468,-13880,88,338,105
49550112,1128,-484,-13212,92,298,100
49554912,1048,-352,-13864,80,383,93
49559712,948,-460,-13224,77,321,72
49564512,1184,-492,-13584,138,373,104
49569412,988,-424,-13572,62,278,90
49643811,1152,-392,-13552,121,361,122
49645411,1152,-392,-13552,121,361,122
49650211,1128,-556,-13516,131,294,90
49655011,928,-516,-13400,99,328,108
49659811,968,-424,-13448,95,341,107
49664611,1040,-464,-13372,118,375,107
49669411,1204,-400,-13604,110,327,90
49675311,1128,-488,-13600,118,335,91
49680111,1208,-432,-13544,77,343,99
49685011,1100,-464,-13804,106,346,118
49777710,1140,-556,-13356,115,338,116
49780310,1100,-428,-13984,56,298,94
49785212,1032,-380,-13188,98,356,90
49790012,1316,-368,-13776,129,367,94
49794812,1044,-476,-13352,114,275,107
49799612,1028,-472,-13520,94,284,91
49804412,976,-364,-13724,97,366,95
49810312,1020,-472,-13524,122,347,109
49815112,1208,-460,-13580,112,364,79
49819912,1176,-448,-13584,55,261,100
49894312,1020,-704,-14792,142,123,106
49895812,1020,-704,-14792,142,123,106
49899612,916,-912,-11964,46,487,104
49904412,1260,-356,-15524,69,420,84
49910312,820,-328,-12848,99,134,72
49915212,976,-100,-13000,138,413,113
49920012,1168,-488,-14016,54,411,112
49924812,1392,-460,-12784,141,392,103
49941812,568,-596,-12848,84,489,102
