timestamp_us,ax,ay,az,gx,gy,gz
6048013,1408,-40,-13832,76,345,86
6049612,1408,-40,-13832,76,345,86
6136410,1296,-24,-13672,71,355,126
6140312,1348,-44,-13712,83,337,110
6145112,1324,0,-13732,107,354,108
6149912,1336,-44,-13684,82,329,108
6154712,1312,-188,-13668,81,339,104
6159512,1376,-80,-13636,76,366,103
6164412,1368,-116,-13624,95,341,87
6170312,1364,-72,-13656,85,355,78
6175112,1364,-32,-13524,99,346,105
6179912,1332,-92,-13468,92,360,90
6184712,1352,-40,-13756,80,348,75
6189512,1464,48,-13780,77,339,86
6195412,1296,-120,-13648,79,336,96
6200212,1344,-76,-13684,97,332,93
6205112,1368,-88,-13636,92,359,85
6209912,1296,-140,-13620,84,359,126
6295213,1364,-28,-13724,95,347,87
6300412,1428,4,-13692,95,333,87
6370313,1356,-108,-13744,82,338,126
6375572,1340,-80,-13788,91,323,94
6379412,1296,-32,-13616,77,357,89
6384512,1336,-72,-13688,86,365,99
6389512,1436,-60,-13744,86,366,83
6394412,1316,-40,-13652,90,353,87
6400512,1376,4,-13760,54,351,73
6405412,1412,-36,-13680,81,356,49
6410312,1396,-40,-13752,92,365,78
6415412,1288,-108,-13740,90,335,80
6420412,1376,-132,-13584,107,337,86
6425312,1368,-88,-13716,92,327,95
6442112,1248,-96,-13584,86,348,97
6444712,1404,-220,-13588,74,356,94
6449512,1308,-144,-13672,87,335,108
6455412,1332,-92,-13604,93,335,113
6565012,1296,-168,-13736,77,343,98
6570112,1324,12,-13776,67,313,102
6574912,1416,-104,-13704,84,327,70
6579712,1404,-96,-13604,98,329,119
6649913,1420,-172,-13792,81,358,102
6655012,1296,-16,-13732,88,334,94
6660212,1380,-160,-13516,70,349,81
6665412,1472,-172,-13572,95,310,113
6670571,1440,-72,-13672,84,349,99
6674512,1344,-84,-13700,77,340,109
6679712,1448,-24,-13680,88,337,109
6684871,1292,-108,-13724,84,324,80
6690012,1420,-60,-13752,76,340,105
6695112,1256,-80,-13736,87,322,87
6700272,1452,-72,-13736,91,345,85
6705412,1420,-60,-13684,106,331,97
6710512,1412,-48,-13744,108,358,105
6714412,1352,-100,-13640,79,338,104
6799212,1380,-128,-13764,106,334,96
6800812,1380,-128,-13764,106,334,96
6804612,1256,-96,-13648,83,354,99
6809512,1316,-132,-13768,85,345,107
6815412,1312,0,-13772,75,351,103
6820212,1404,-172,-13688,82,342,97
6891311,1352,52,-13692,83,323,82
6895211,1316,-8,-13660,88,352,74
6900011,1328,-40,-13656,80,324,94
6904811,1440,-100,-13772,87,343,93
6909611,1372,-44,-13748,84,355,92
6914511,1308,-56,-13916,93,339,59
6920411,1444,-96,-13764,89,341,83
6925211,1416,-124,-13620,92,338,121
6935012,1440,-28,-13736,98,348,76
6940012,1436,-28,-13640,99,351,99
6944812,1388,-116,-13784,83,338,84
6949612,1308,-124,-13800,85,362,109
6954412,1324,-56,-13708,80,338,100
7038410,1316,-80,-13792,84,333,92
7040012,1316,-80,-13792,84,333,92
7044912,1360,-84,-13524,70,357,92
7049712,1344,-64,-13748,78,360,101
7054512,1408,-124,-13792,107,342,99
7060412,1440,-92,-13588,80,334,98
7065212,1416,-56,-13668,80,334,110
7135112,1384,-88,-13616,96,314,91
7140112,1340,-40,-13640,71,350,91
7144912,1472,-40,-13816,72,333,93
7149712,1348,-84,-13836,97,333,86
7154612,1336,-160,-13684,94,332,110
7159412,1280,-112,-13676,72,348,98
7165312,1292,-28,-13660,101,350,101
7170112,1416,-96,-13728,53,332,89
7174912,1388,-192,-13784,101,334,104
7179712,1420,-16,-13808,86,336,93
7267112,1316,-56,-13800,82,354,115
7270012,1420,-56,-13696,95,313,93
7274812,1388,-116,-13784,95,350,86
7279612,1380,-40,-13680,81,363,103
7284412,1408,-128,-13700,95,351,112
7290312,1456,-32,-13728,101,351,81
7295112,1252,-56,-13688,99,350,96
7300012,1364,-16,-13756,96,350,90
7304812,1256,-172,-13624,84,345,93
7309612,1352,-72,-13776,83,333,87
7380110,1320,0,-13756,98,343,95
7385010,1424,-20,-13600,109,338,125
7389810,1428,-64,-13744,78,344,92
7394712,1368,-76,-13644,99,352,78
7399512,1428,80,-13676,85,345,109
7405412,1316,-56,-13656,90,340,95
7410212,1356,-80,-13608,76,352,90
7496812,1324,-80,-13844,97,347,95
7513812,1332,-44,-13676,75,351,135
7515312,1332,-44,-13676,75,351,135
7520212,1424,-88,-13660,76,333,90
7525012,1332,-76,-13700,87,352,97
7529812,1264,-72,-13716,90,333,103
7534712,1376,-112,-13628,90,323,95
7539512,1384,-40,-13644,93,350,104
7559910,1368,-72,-13684,92,359,119
7564810,1404,-12,-13668,105,333,86
7569612,1416,-80,-13792,82,331,97
7574412,1344,-52,-13800,73,353,102
7580312,1380,-64,-13648,66,348,88
7650312,1228,-100,-13680,88,322,125
7655310,1396,4,-13660,78,336,111
7660112,1268,-56,-13616,83,359,102
7664912,1396,-132,-13684,97,329,108
7669712,1412,-148,-13700,95,338,97
7674612,1256,-60,-13688,84,325,110
7761370,1364,-72,-13772,90,352,112
7765210,1412,-40,-13644,100,339,99
7770010,1240,-56,-13796,106,336,119
7774912,1352,-60,-13600,64,351,115
7779712,1276,-28,-13704,70,335,111
7784512,1360,-124,-13728,69,346,112
7790412,1344,-52,-13560,95,356,94
7795212,1348,-148,-13576,72,344,103
7800012,1420,-132,-13752,90,327,109
7804812,1272,-12,-13600,94,329,88
7809612,1264,-4,-13676,88,349,114
7814512,1296,-76,-13748,77,339,115
7820412,1372,-80,-13740,107,348,92
7825212,1336,-88,-13712,83,343,102
7896210,1380,-44,-13616,73,349,98
7900010,1424,-80,-13708,76,343,110
7904912,1400,-36,-13476,78,371,90
7990510,1408,-124,-13548,85,348,96
8003870,1408,-104,-13688,76,346,80
8005410,1408,-104,-13688,76,346,80
8010210,1412,-156,-13820,95,343,96
8015012,1336,-24,-13664,87,351,98
8019812,1416,-104,-13576,107,358,104
8024612,1316,-92,-13592,77,341,124
8029512,1280,-60,-13780,67,343,95
8035412,1364,-68,-13800,82,346,90
8040212,1364,-148,-13588,105,349,92
8045012,1268,-44,-13652,98,344,90
8049812,1440,-160,-13676,94,345,94
8054612,1356,-88,-13516,68,330,71
8059412,1492,-32,-13624,77,346,107
8065312,1420,-64,-13724,90,330,105
8070212,1368,-80,-13644,90,332,106
8075012,1296,-36,-13704,77,337,92
8146510,1320,-160,-13724,79,348,87
8233311,1364,-56,-13612,76,361,100
8234811,1428,-132,-13748,74,343,101
8239711,1372,-100,-13612,97,323,104
8244511,1244,-168,-13788,67,315,111
8250411,1368,-64,-13556,112,352,93
8255311,1320,-60,-13788,68,366,103
8260111,1404,-52,-13592,95,350,106
8264911,1420,-80,-13772,63,343,98
8269711,1316,-64,-13752,65,337,91
8274511,1344,32,-13672,102,345,86
8280411,1396,-100,-13596,93,312,102
8285211,1392,-100,-13812,83,334,72
8290011,1420,-112,-13704,92,337,68
8294911,1332,-132,-13860,62,340,89
8299711,1320,-96,-13772,105,334,96
8304511,1404,-168,-13604,102,366,86
8393212,1356,-64,-13704,78,359,102
8394812,1352,-112,-13716,81,353,81
8399612,1376,-88,-13756,93,326,94
8470610,1388,-40,-13660,78,334,122
8484210,1276,-140,-13620,71,338,102
8485710,1276,-140,-13620,71,338,102
8489610,1344,-100,-13640,57,349,94
8494410,1464,-20,-13696,91,341,111
8500310,1388,-72,-13596,69,345,113
8505112,1280,-88,-13760,87,323,93
8509912,1356,-16,-13788,79,307,84
8514712,1392,-172,-13704,88,351,88
8519612,1356,-84,-13716,69,349,93
8524412,1416,-80,-13596,83,358,91
8530312,1320,-8,-13780,91,337,83
8535112,1256,-128,-13780,68,356,78
8539912,1320,-108,-13748,80,330,114
8560513,1436,-92,-13752,87,346,110
8564512,1320,-60,-13700,65,336,88
8570412,1400,8,-13736,74,349,105
8655969,1476,-172,-13616,105,318,78
8659810,1432,-128,-13652,100,344,100
8664610,1532,-84,-13780,67,322,101
8735412,1332,-88,-13652,76,334,100
8739413,1424,36,-13688,74,358,84
8745312,1384,-92,-13776,93,338,85
8750112,1396,-52,-13644,68,334,100
8754912,1332,-128,-13584,80,345,93
8759812,1460,-104,-13772,65,344,86
8764612,1480,-60,-13796,96,332,90
8769412,1448,-192,-13684,80,339,94
8775312,1344,-116,-13736,90,341,99
8780112,1440,-220,-13704,103,366,93
8784912,1388,-32,-13536,82,344,102
8789712,1296,-216,-13660,47,342,92
8794512,1440,-52,-13740,87,345,105
8799412,1324,-100,-13636,71,368,105
8885810,1372,48,-13648,113,352,71
8889612,1336,-128,-13616,83,334,97
8894412,1296,-24,-13816,87,351,105
8900412,1272,28,-13776,88,347,94
8905212,1392,-148,-13644,82,330,108
8910012,1392,-92,-13824,102,334,91
8980610,1364,-116,-13696,81,347,106
9001112,1312,-248,-13756,84,358,80
9004812,1332,24,-13856,57,346,96
9009612,1264,-104,-13912,75,318,88
9014412,1416,-84,-13764,95,327,89
9020312,1316,-60,-13692,73,354,88
9025112,1324,-52,-13680,89,344,76
9029912,1460,-72,-13576,102,328,104
9034712,1360,88,-13680,99,345,111
9039612,1376,-60,-13396,103,364,135
9044412,1440,-36,-13640,62,320,108
9050312,1428,-124,-13824,91,341,98
9134712,1396,-80,-13680,70,347,102
9139612,1364,-128,-13640,78,360,96
9144412,1264,-164,-13584,74,342,101
9150312,1348,-84,-13692,108,346,117
9155212,1360,-120,-13572,63,355,116
9160012,1320,-120,-13744,91,352,103
9164812,1320,-16,-13560,62,360,118
9169612,1272,-172,-13588,22,272,85
9240610,1348,-32,-13680,71,345,87
9244512,1336,-92,-13780,89,339,107
9250412,1352,-176,-13680,81,339,114
9255212,1396,-24,-13696,70,359,111
9260012,1300,-8,-13496,81,348,111
9264812,1320,0,-13764,91,345,110
9269712,1312,-136,-13792,76,336,87
9274512,1380,-80,-13684,95,322,128
9280412,1412,-24,-13640,88,358,97
9364715,1364,24,-13608,77,335,104
9369612,1332,-180,-13588,61,355,93
9374412,1404,-68,-13716,83,318,101
9380312,1400,-4,-13616,84,319,94
9385112,1416,-28,-13728,112,345,99
9389912,1452,-160,-13688,79,339,108
9394712,1356,4,-13680,94,345,99
9399612,1356,0,-13680,94,345,100
9404412,1412,-116,-13744,88,337,71
9410312,1488,-44,-13816,87,342,120
9415112,1344,44,-13572,81,356,102
9485012,1364,-168,-13644,85,337,89
9498312,1348,-120,-13664,75,354,89
9499912,1372,-132,-13712,87,351,127
9504712,1368,-132,-13580,94,354,97
9509512,1320,4,-13688,97,342,114
9515412,1404,-80,-13876,93,357,107
9520212,1380,-108,-13656,76,343,98
9629712,1316,-12,-13812,71,341,103
9634812,1232,48,-13852,88,346,117
9639712,1368,-152,-13504,90,356,84
9644512,1348,-152,-13860,97,338,79
9650412,1432,-140,-13688,62,335,96
9655212,1388,-96,-13660,60,343,113
9660012,1368,-20,-13764,81,351,101
9664812,1380,-12,-13792,81,343,88
9669612,1388,-112,-13664,84,346,97
9674412,1352,-200,-13868,93,349,114
9680412,1388,-28,-13692,95,339,98
9685212,1396,0,-13704,64,358,97
9690012,1412,-112,-13660,97,317,94
9760511,1396,-148,-13560,76,360,110
9765411,1404,-8,-13692,95,347,91
9770211,1336,-28,-13668,114,358,102
9775111,1360,-164,-13552,95,351,100
9859312,1344,-152,-13604,91,354,106
9860912,1344,-152,-13604,91,354,106
9864712,1352,-72,-13820,76,345,114
9869612,1340,-128,-13732,73,346,94
9874412,1396,-136,-13588,79,355,108
9880312,1292,-64,-13556,82,340,124
9885112,1416,-96,-13684,88,325,99
9889912,1316,-128,-13788,86,341,87
9894712,1240,-76,-13804,84,343,76
9899612,1388,-72,-13748,84,340,93
9904412,1428,-36,-13704,89,357,77
9910312,1392,-44,-13732,65,326,92
9915112,1384,-76,-13804,91,323,93
9919912,1588,-112,-13668,61,324,93
9924712,1344,-132,-13752,93,329,88
9934612,1384,48,-13664,73,367,96
10008621,1472,-16,-13580,72,353,79
10010222,1400,-128,-13560,98,348,87
10015012,1376,-68,-13736,77,351,89
10102410,1352,-4,-13700,73,343,105
10105210,1396,-160,-13624,43,340,98
10110112,1372,-56,-13792,102,339,99
10114912,1408,-72,-13652,76,338,90
10119712,1384,28,-13720,86,326,98
10124512,1456,-128,-13668,59,335,74
10130412,1344,-176,-13600,96,341,74
10135212,1416,-164,-13584,87,321,99
10140012,1440,-64,-13644,95,333,96
10144812,1380,-92,-13792,98,335,81
10149712,1464,-60,-13644,104,349,99
10154512,1452,-96,-13604,96,354,97
10160412,1424,-108,-13756,96,352,100
10165212,1400,-180,-13716,88,338,102
10170012,1428,-40,-13680,91,325,114
10174812,1416,-76,-13748,91,347,106
10268110,1336,-84,-13756,54,356,103
10343912,1276,0,-13668,91,318,86
10345512,1440,-88,-13712,104,336,92
10350312,1380,-36,-13728,79,342,63
10355112,1416,-68,-13664,86,328,74
10359912,1460,-160,-13544,78,340,92
10364712,1416,-28,-13764,91,357,75
10369512,1340,-48,-13724,62,368,74
10374412,1340,-48,-13724,62,368,74
10380312,1388,-72,-13728,87,318,107
10385112,1300,-116,-13768,86,365,108
10389912,1328,-80,-13692,89,337,112
10394712,1200,-72,-13700,88,342,113
10399512,1200,-72,-13700,88,342,113
10405412,1372,-204,-13764,82,347,132
10410212,1328,-120,-13576,74,334,124
10415112,1332,-56,-13540,96,350,105
10508512,1420,-32,-13640,82,333,105
10525412,1276,0,-13608,100,345,109
10530212,1356,-8,-13688,88,334,118
10535012,1416,-176,-13548,82,316,129
10631012,1356,-24,-13688,53,331,91
10634912,1388,-96,-13796,100,356,90
10639712,1468,-96,-13728,75,355,116
10644512,1468,-96,-13728,75,355,116
10650412,1408,-164,-13580,91,338,112
10655212,1264,-64,-13752,90,370,106
10660012,1360,-44,-13804,66,346,102
10664812,1284,32,-13728,84,330,108
10669712,1256,-112,-13716,71,336,104
10674512,1256,-112,-13716,71,336,104
10680412,1384,-128,-13684,86,321,79
10685212,1368,-12,-13620,87,351,92
10690012,1432,-176,-13764,77,338,71
10694812,1300,-64,-13788,84,325,88
10785012,1348,-84,-13688,90,353,103
10789912,1236,4,-13768,85,330,94
10794712,1396,-112,-13728,91,335,96
10799612,1396,-112,-13728,91,335,96
10804412,1384,-80,-13604,72,346,104
10810312,1304,-180,-13680,95,329,95
10882712,1384,-40,-13752,87,342,103
10885512,1396,-80,-13584,99,346,105
10890312,1388,-64,-13576,100,349,106
10895112,1344,-128,-13724,77,355,127
10899912,1360,0,-13716,77,356,94
10904712,1360,0,-13716,77,356,94
10909512,1448,-24,-13680,112,351,91
10915412,1280,-112,-13708,80,357,127
10920212,1420,-92,-13660,86,345,121
10925112,1380,-76,-13756,66,333,102
10935110,1400,-72,-13636,75,347,112
10939910,1412,-16,-13708,78,323,94
11031110,1272,-168,-13576,106,354,96
11035113,1380,-56,-13720,76,336,87
11039910,1348,-124,-13716,100,340,93
11044710,1348,-124,-13716,100,340,93
11049512,1412,-156,-13840,89,352,86
11055412,1388,-32,-13728,73,328,105
11060212,1216,-108,-13612,74,365,79
11065112,1240,-204,-13700,85,326,109
11137813,1276,-112,-13788,65,336,112
11139412,1276,-112,-13788,65,336,112
11145312,1412,-104,-13720,81,332,122
11150112,1352,-4,-13632,88,333,83
11154912,1400,-40,-13772,105,337,92
11159712,1400,-40,-13772,105,337,92
11164512,1404,-160,-13648,62,348,100
11170412,1336,-128,-13744,71,346,100
11175312,1364,-40,-13736,78,327,93
11267910,1224,4,-13776,73,376,98
11269510,1224,4,-13776,73,376,98
11275412,1400,-80,-13712,84,340,99
11280212,1304,-128,-13744,89,357,94
11285012,1404,-60,-13836,82,342,89
11289912,1404,-60,-13836,82,342,89
11294712,1404,-64,-13692,85,344,90
11299512,1356,-68,-13648,81,341,88
11305412,1264,-80,-13796,77,357,79
11310212,1332,-32,-13600,102,353,99
11315012,1384,-112,-13684,88,330,93
11386912,1356,-144,-13704,86,349,82
11389512,1356,-144,-13704,86,349,82
11395412,1416,-76,-13600,87,329,101
11400212,1432,-132,-13732,88,341,102
11405012,1396,-60,-13576,75,333,108
11409812,1396,-60,-13576,75,333,108
11414612,1376,-100,-13584,96,345,99
11503512,1376,-100,-13584,96,345,99
11518212,1352,-108,-13832,61,356,87
11519712,1352,-108,-13832,61,356,87
11524512,1372,-132,-13752,82,330,109
11530412,1336,-44,-13556,95,333,90
11535212,1260,8,-13624,97,333,77
11540112,1328,0,-13708,89,320,100
11544912,1328,0,-13708,89,320,100
11549712,1304,-36,-13708,87,349,75
11554512,1328,16,-13716,74,363,108
11560412,1380,-32,-13740,98,347,98
11565212,1344,-164,-13656,77,350,90
11570012,1344,-164,-13656,77,350,90
11665810,1304,-92,-13724,97,346,81
11669910,1304,-92,-13724,97,346,81
11674710,1408,-24,-13768,82,349,87
11679510,1348,-64,-13636,78,327,94
11684412,1440,-128,-13716,97,369,90
11777918,1248,-228,-13620,89,329,92
11779518,1248,-228,-13620,89,329,92
11784412,1372,-132,-13696,89,350,75
11790312,1332,-224,-13672,69,348,123
11795112,1332,-224,-13672,69,348,123
11800012,1320,-256,-13732,85,329,101
11804812,1356,-152,-13644,93,321,117
11809612,1392,-64,-13576,78,322,102
11814412,1264,-116,-13700,86,352,130
11820312,1316,-76,-13724,96,336,113
11825112,1316,-76,-13724,96,336,113
11829912,1324,-44,-13672,74,343,117
11834712,1328,-76,-13584,80,361,100
11839612,1436,-40,-13828,95,314,87
11844412,1400,-32,-13736,83,347,106
11917210,1416,4,-13716,95,347,90
11919812,1416,4,-13716,95,347,90
11924612,1408,-100,-13752,97,340,103
11934512,1420,-56,-13768,95,333,88
12026712,1300,-68,-13692,49,325,95
12029412,1300,-68,-13692,49,325,95
12035312,1468,-108,-13788,91,302,84
12040212,1468,-108,-13788,91,302,84
12045012,1400,56,-13768,83,373,107
12049812,1432,-16,-13744,89,338,98
12054612,1372,-32,-13648,80,338,97
12059412,1424,-8,-13708,89,328,107
12065312,1388,-68,-13564,101,352,118
12070112,1268,-20,-13708,93,317,102
12074912,1364,124,-13716,71,355,94
12079812,1364,36,-13732,107,348,99
12084612,1304,-44,-13768,70,308,90
12089412,1340,-28,-13696,102,348,98
12095312,1388,-80,-13632,64,359,73
12100112,1404,-52,-13828,60,358,87
12171312,1356,-132,-13652,66,349,106
12263312,1384,-88,-13804,76,344,89
12264912,1384,-88,-13804,76,344,89
12269712,1392,-12,-13720,65,328,116
12274512,1332,-124,-13720,63,377,112
12280412,1372,-68,-13716,95,352,109
12285212,1372,-68,-13716,95,352,109
12290012,1276,-108,-13788,105,339,117
12294812,1316,-112,-13832,100,333,118
12299612,1468,-128,-13668,97,337,94
12304512,1364,-128,-13744,104,334,99
12310412,1352,-120,-13740,87,332,105
12315212,1300,-188,-13652,70,372,100
12320012,1472,40,-13788,59,352,76
12324812,1360,-132,-13668,76,342,107
12329612,1336,-84,-13644,75,349,76
12334412,1348,36,-13652,80,348,84
12429112,1340,-48,-13664,79,332,75
12442512,1380,-64,-13756,89,332,94
12445112,1380,-64,-13756,89,332,94
12519010,1432,8,-13752,75,359,94
12520612,1364,-16,-13752,100,348,92
12525412,1364,-16,-13752,100,348,92
12530212,1416,-116,-13552,96,338,117
12535012,1364,-56,-13640,99,346,106
12539812,1428,-48,-13656,101,357,102
12544612,1360,-76,-13728,83,348,93
12549412,1392,-20,-13680,75,329,120
12555312,1440,0,-13648,81,342,111
12560212,1372,72,-13764,67,344,125
12565012,1360,-92,-13788,114,336,98
12569812,1448,-84,-13744,94,340,89
12574612,1424,-136,-13692,75,357,103
12579412,1400,-84,-13672,73,344,110
12585312,1328,-92,-13768,71,354,86
12590112,1644,0,-14084,199,285,120
12703610,1288,16,-13704,20,249,95
12705212,1288,16,-13704,20,249,95
12710112,1248,32,-13728,56,366,101
12714912,1344,-64,-13820,108,386,91
12786712,1436,-192,-13772,61,410,108
12789412,1436,-192,-13772,61,410,108
12795312,1372,0,-13532,79,337,86
12800212,1436,12,-13644,102,323,101
12805012,1276,-40,-13684,107,307,105
12809812,1292,-92,-13708,65,369,109
12814612,1312,-28,-13892,68,333,118
12819412,1324,-112,-13664,83,301,99
12825312,1304,-200,-13480,53,332,98
12830112,1340,-16,-13840,44,347,102
12834912,1428,44,-13852,37,343,93
12839812,1380,-60,-12924,39,110,69
12844612,1332,4,-14444,316,351,108
12849412,1296,-120,-13928,-106,228,81
12940410,1408,-192,-14272,55,417,118
12961110,1356,-120,-13448,-23,367,96
12964810,1356,-120,-13448,-23,367,96
12969612,1296,88,-13796,114,339,109
12974412,1180,12,-13632,94,277,88
12980312,1304,84,-13848,152,294,86
13052912,1184,-228,-13540,175,438,112
13054512,1184,-228,-13540,175,438,112
13060412,1452,-72,-13504,46,478,127
13065212,1188,28,-14116,-19,269,130
13070112,1132,-80,-13436,132,327,124
13074912,1160,-176,-14108,42,385,97
13079712,1236,-56,-13488,62,349,85
13084512,1332,20,-13740,41,392,96
13090412,1404,-104,-13892,21,308,114
13095212,1364,-156,-13556,79,366,102
13100012,1456,-188,-13792,73,357,68
13104812,1416,-104,-13776,38,323,81
13196910,1424,-268,-14868,51,635,116
13199510,1424,-268,-14868,51,635,116
13205412,1508,-372,-12752,23,333,107
13210212,1428,-104,-13964,104,367,125
13215012,1324,-152,-13720,98,245,118
13219912,1336,-44,-13792,143,376,103
13224712,1292,-128,-13752,15,466,92
13229512,1332,64,-13844,111,271,122
13303310,1296,64,-13800,64,337,77
13304810,1296,64,-13800,64,337,77
13309610,1328,-64,-13768,68,360,83
13314412,1504,-88,-13644,110,331,81
13320312,1352,-44,-13496,109,369,88
13325112,1212,-8,-13800,90,326,88
13330012,1292,-40,-13684,107,350,88
13334812,1408,-124,-13612,87,352,86
13339612,1424,-80,-13712,82,335,89
13344412,1412,-104,-13672,106,330,84
13435712,1508,-44,-13616,84,279,59
13449220,1488,-64,-13520,86,336,68
13450710,1488,-64,-13520,86,336,68
13454412,1504,-32,-13768,103,371,109
13460312,1344,-84,-13700,80,353,88
13465112,1420,-124,-13716,84,326,100
13470012,1352,8,-13736,105,341,117
13474812,1280,-96,-13664,77,328,114
13479612,1296,24,-13704,106,347,118
13484412,1236,-132,-13832,88,339,91
13556312,1376,-232,-13576,94,380,96
13560212,1376,-232,-13576,94,380,96
13565012,1316,-316,-13796,93,341,126
13569912,1396,-212,-13672,118,374,131
13574712,1380,-208,-13728,64,339,129
13579512,1204,-256,-13784,105,321,154
13585412,1248,-284,-13688,53,372,183
13590212,1208,-64,-13716,62,324,158
13595012,1312,64,-13856,77,297,76
13709112,1452,-108,-13604,53,304,114
13710712,1452,-108,-13604,53,304,114
13714612,1352,-132,-13816,149,370,111
13719412,1408,-100,-13800,42,309,96
13725312,1320,-272,-13568,117,389,103
13730112,1528,-184,-13888,55,333,104
13734912,1264,-172,-13464,93,384,103
13739812,1420,-160,-13800,74,335,112
13744612,1372,-220,-13728,121,334,123
13749412,1264,-332,-13768,48,349,133
13755312,1336,-216,-13588,60,340,107
13829810,1412,28,-13748,121,347,80
13834910,1392,-40,-13720,77,333,84
13839712,1416,-128,-13680,81,337,86
13844512,1388,-44,-13740,83,331,75
13850412,1484,4,-13392,75,338,118
13855312,1316,-180,-13576,88,370,109
13948821,1416,-20,-13760,83,355,92
13963512,1340,-16,-13752,81,344,89
13965012,1340,-16,-13752,81,344,89
13969812,1400,-64,-13560,69,352,106
13974612,1484,8,-13544,61,340,107
13979412,1332,60,-13744,74,377,99
13985412,1328,120,-13528,59,342,122
13990212,1520,32,-13892,81,367,99
13995012,1504,48,-13776,89,358,121
13999812,1288,-24,-13864,93,293,125
14004612,1264,-176,-13560,105,384,139
14009412,1280,-144,-13872,90,381,113
14015312,1216,-152,-13712,130,342,109
14020112,1256,-160,-13720,107,304,119
14092312,1220,-100,-13828,93,336,107
14095112,1220,-100,-13828,93,336,107
14100012,1160,-24,-13628,91,333,118
14104812,1208,-36,-13648,62,350,94
14109612,1400,168,-13880,90,320,96
14199610,1400,168,-13880,90,320,96
14204612,1420,-76,-13716,69,368,83
14209412,1364,-120,-13768,57,347,78
14215412,1452,0,-13756,72,333,82
14220212,1364,4,-13700,101,339,86
14225012,1444,-60,-13672,87,337,78
14229812,1420,-84,-13880,78,347,94
14234612,1540,-216,-13696,63,336,84
14239412,1408,-80,-13800,65,354,85
14245412,1380,32,-13764,82,351,101
14250212,1416,4,-13520,86,334,116
14255012,1448,-112,-13512,91,333,92
14259812,1352,-44,-13676,93,324,110
14264612,1348,-120,-13664,97,342,123
14269412,1276,12,-13612,46,366,106
14341012,1432,-136,-13800,100,350,101
14345012,1380,-60,-13760,72,340,117
14435210,1392,-52,-13760,96,318,85
14449710,1376,-160,-13772,55,362,97
14454612,1360,-92,-13856,71,326,90
14459412,1368,-116,-13648,70,325,105
14465412,1304,-180,-13644,88,332,114
14470212,1264,-172,-13804,82,341,112
14475012,1428,-108,-13728,91,327,102
14479812,1324,-76,-13724,82,343,102
14484612,1400,-16,-13592,82,366,114
14489412,1332,-136,-13840,69,323,119
14495412,1340,-80,-13648,104,344,112
14500212,1364,-108,-13564,91,338,118
14505012,1312,-96,-13696,87,333,116
14509812,1376,-188,-13680,74,332,90
14514612,1380,-72,-13796,90,344,109
14519412,1400,-112,-13584,77,332,101
14613710,1320,-44,-13592,106,327,86
14615212,1320,-44,-13592,106,327,86
14714711,1524,-140,-13764,75,350,87
14719710,1384,-24,-13672,75,356,101
14724510,1516,-96,-13656,76,351,100
14730410,1364,0,-13708,64,306,90
14735212,1388,84,-13696,89,354,103
14740012,1352,-100,-13708,46,352,106
14744812,1424,-72,-13668,76,337,99
14749712,1492,0,-13812,77,341,115
14754512,1356,-24,-13664,74,330,80
14760412,1372,32,-13580,73,353,85
14765212,1432,-8,-13752,129,351,113
14770012,1408,-16,-13732,101,314,81
14774812,1216,-140,-13760,83,348,83
14779612,1364,64,-13852,66,352,100
14784412,1308,-12,-13692,58,338,78
14877710,1316,-68,-13584,103,337,112
14880416,1316,-68,-13584,103,337,112
14885212,1236,-44,-13672,87,334,74
14890012,1364,-40,-13692,107,331,90
14894812,1364,-84,-13676,104,346,86
14966712,1400,4,-13612,70,348,123
14981210,1460,-12,-13768,89,330,85
14985010,1344,24,-13792,91,351,90
14989912,1320,-108,-13520,77,346,83
14994712,1372,-80,-13592,65,339,89
14999512,1352,-36,-13676,108,338,103
15005412,1284,-92,-13808,75,334,84
15010212,1320,-72,-13716,80,348,97
15015012,1412,-140,-13716,107,341,104
15019812,1404,-96,-13760,65,333,87
15024612,1372,-136,-13696,89,333,101
15029512,1472,-112,-13688,92,355,84
15035412,1352,-124,-13624,71,336,77
15127710,1344,-44,-13700,94,350,76
15130310,1344,-44,-13700,94,350,76
15135112,1324,-20,-13668,80,324,105
15139912,1468,-204,-13788,89,330,92
15144712,1308,-136,-13784,95,327,102
15149512,1400,-52,-13688,84,377,93
15155412,1360,-60,-13648,84,332,96
15227412,1264,-76,-13712,73,346,109
15230212,1264,-76,-13712,73,346,109
15235012,1456,-28,-13692,104,335,99
15239812,1404,-64,-13704,79,328,110
15244612,1336,-8,-13660,101,334,116
15249412,1416,-72,-13668,86,346,89
15255412,1332,-104,-13808,115,321,93
15260212,1300,-56,-13732,94,330,80
15265012,1340,36,-13728,94,353,89
15269812,1352,-88,-13616,95,339,116
15274612,1336,-128,-13676,86,349,78
15365014,1336,-128,-13676,86,349,78
15369912,1372,-180,-13684,114,325,96
15374712,1304,16,-13668,63,359,94
15379612,1352,-32,-13584,78,344,85
15384412,1304,0,-13748,65,341,100
15390312,1408,-16,-13716,87,360,85
15395112,1400,-24,-13832,99,322,86
15399912,1352,-128,-13720,93,352,109
15404712,1368,8,-13612,77,323,107
15476710,1392,-92,-13792,95,349,99
15490210,1304,-48,-13676,67,339,103
15495010,1364,-56,-13588,96,343,92
15499812,1380,-120,-13620,73,353,105
15504612,1396,16,-13736,72,353,85
15509412,1368,-28,-13640,79,323,127
15515312,1488,-72,-13692,68,347,104
15520112,1360,-116,-13700,92,354,108
15613712,1312,-48,-13808,79,328,94
15615212,1312,-48,-13808,79,328,94
15620112,1480,-116,-13684,61,352,86
15624912,1460,-76,-13796,60,326,117
15629812,1416,-200,-13712,100,334,102
15634612,1324,-116,-13580,64,339,126
15639412,1424,-80,-13792,80,341,104
15645312,1420,-96,-13488,81,321,97
15650112,1316,-232,-13772,78,317,104
15654912,1432,-48,-13864,79,338,77
15659812,1352,-92,-13776,91,328,99
15664612,1332,-72,-13736,82,353,102
15761112,1292,-104,-13712,79,323,81
15765012,1392,-136,-13660,93,354,109
15769812,1348,-96,-13668,66,362,98
15774612,1372,-12,-13824,80,341,91
15779412,1364,-36,-13716,98,328,113
15785412,1424,-40,-13640,89,324,90
15875310,1424,-40,-13640,89,324,90
15880312,1380,-40,-13652,92,341,91
15885112,1332,-132,-13728,98,357,83
15889912,1448,-48,-13700,85,353,92
15894712,1356,-52,-13636,97,323,99
15899512,1432,-16,-13808,89,337,106
15904412,1308,-112,-13600,67,352,103
15910312,1316,-160,-13704,87,394,76
15915112,1356,-136,-13696,63,337,99
15919912,1408,-32,-13792,99,321,97
15924712,1424,0,-13740,69,325,113
15941712,1344,-180,-13700,78,331,109
15945412,1376,-100,-13864,91,351,110
15950212,1468,-72,-13672,91,346,122
16022412,1524,-60,-13768,87,353,80
16025012,1524,-60,-13768,87,353,80
16029812,1320,-128,-13620,99,346,87
16034612,1364,-196,-13788,84,351,121
16128012,1380,-56,-13656,101,347,96
16129612,1380,-56,-13656,101,347,96
16134412,1336,-52,-13520,74,337,99
16140312,1288,-120,-13644,99,347,102
16145112,1280,-16,-13700,77,346,82
16149912,1320,-8,-13760,63,324,86
16154712,1332,-12,-13916,94,344,98
16159512,1292,-152,-13696,107,348,98
16164412,1408,-100,-13592,79,316,112
16170312,1336,-76,-13664,89,322,107
16175112,1372,-36,-13668,83,341,106
16179912,1416,8,-13668,68,335,88
16184712,1444,60,-13684,117,349,105
16189512,1476,-60,-13700,79,346,97
16195412,1412,16,-13556,117,347,95
16200212,1280,-4,-13640,90,369,88
16272212,1264,-108,-13672,63,338,115
16275012,1532,72,-13688,101,342,99
16365313,1532,72,-13688,101,342,99
16370212,1340,-132,-13712,84,370,128
16375012,1432,0,-13848,93,350,120
16379812,1484,-92,-13612,83,345,85
16384712,1376,-84,-13756,57,349,108
16389512,1444,28,-13776,77,338,109
16395412,1348,-60,-13736,99,336,132
16400212,1348,-116,-13780,81,319,120
16405012,1336,-32,-13656,65,340,113
16409812,1412,-156,-13696,88,332,79
16414612,1360,-104,-13792,91,342,107
16419412,1416,-92,-13632,78,374,110
16425412,1292,-140,-13648,105,339,84
16435410,1320,-184,-13640,78,351,93
16440210,1312,-24,-13808,73,355,79
16445012,1356,-148,-13572,70,331,100
16449812,1344,48,-13816,87,351,109
16539712,1344,48,-13816,87,351,109
16615512,1272,-136,-13572,97,349,108
16620412,1288,-60,-13892,80,350,105
16625212,1292,-188,-13740,91,315,127
16630012,1328,-188,-13708,95,339,105
16634812,1360,-196,-13744,92,361,87
16639612,1404,-76,-13636,73,335,96
16644412,1388,-88,-13548,96,351,94
16650312,1396,-40,-13792,83,319,102
16655112,1376,-112,-13840,80,350,104
16660012,1452,-24,-13524,75,347,82
16664812,1316,-32,-13748,110,350,90
16669612,1288,36,-13700,96,335,89
16674412,1436,-48,-13772,81,327,94
16680312,1264,-4,-13576,75,339,101
16685112,1432,-56,-13572,49,339,94
16689912,1344,-124,-13680,89,344,120
16803712,1292,-28,-13820,74,327,88
16805312,1292,-28,-13820,74,327,88
16810212,1464,-104,-13648,90,341,92
16815012,1248,-204,-13608,75,358,82
16887212,1296,-24,-13856,70,332,111
16890012,1388,-12,-13696,73,337,97
16894812,1404,-40,-13628,66,341,87
16899712,1392,-56,-13680,72,350,94
16904512,1380,-24,-13720,89,324,88
16910412,1356,-108,-13756,84,343,93
16915212,1376,-68,-13604,96,338,109
16920012,1480,-72,-13732,64,348,103
16924812,1208,-144,-13684,73,349,93
16934712,1352,-148,-13736,92,342,87
16939612,1456,-48,-13696,75,323,84
16944412,1340,-84,-13636,84,357,116
16950412,1340,-80,-13724,79,339,114
16955212,1344,-76,-13748,92,368,83
16960012,1364,-36,-13660,76,341,89
17050213,1364,-36,-13660,76,341,89
17055111,1380,-180,-13612,80,366,103
17059911,1336,-76,-13780,94,335,61
17064711,1352,-112,-13648,88,332,94
17069611,1348,-148,-13788,84,319,97
17141712,1432,44,-13608,85,342,101
17144513,1328,-16,-13752,116,339,106
17150412,1360,-92,-13636,85,345,75
17155212,1268,4,-13744,72,366,86
17160012,1308,-28,-13848,82,339,91
17164812,1388,-44,-13624,63,344,90
17169612,1320,-32,-13600,74,339,86
17174412,1388,-184,-13856,95,346,114
17180312,1468,-132,-13724,94,324,78
17185212,1368,-68,-13652,87,349,106
17190012,1412,-76,-13668,59,357,88
17194812,1340,-276,-13744,89,364,105
17287010,1340,-12,-13744,101,329,80
17289612,1400,100,-13664,67,312,81
17294412,1460,24,-13636,85,310,75
17300312,1432,-68,-13632,66,344,111
17305212,1472,92,-13656,72,344,84
17310012,1432,-36,-13740,99,335,105
17314812,1280,-24,-13680,75,353,106
17319612,1400,60,-13696,73,348,107
17391212,1384,-128,-13656,74,346,85
17394912,1376,-72,-13732,91,330,110
17399712,1368,-72,-13768,102,349,79
17404512,1368,-80,-13676,79,335,97
17410412,1308,-48,-13712,78,325,94
17415212,1328,-12,-13768,78,347,103
17420012,1320,60,-13836,91,336,125
17424812,1324,44,-13836,79,353,97
17438412,1292,24,-13780,97,335,106
17439912,1292,24,-13780,97,335,106
17444912,1428,44,-13708,80,344,109
17536010,1336,-236,-13744,76,325,102
17539712,1252,-236,-13648,79,344,95
17544512,1432,-212,-13796,76,340,135
17550412,1328,-128,-13680,58,368,94
17555312,1372,-64,-13740,84,338,105
17560112,1400,-64,-13572,93,337,101
17564912,1484,-8,-13588,107,322,113
17569712,1328,-64,-13692,94,360,117
17574512,1360,-8,-13668,80,344,104
17646612,1392,-136,-13772,64,338,98
17650312,1352,-256,-13668,82,356,126
17655212,1296,-164,-13808,61,354,122
17660012,1316,-76,-13752,72,334,124
17664812,1276,-268,-13600,81,329,150
17669612,1276,-208,-13724,82,335,122
17674412,1376,-64,-13656,84,331,103
17680312,1436,-108,-13872,70,327,104
17772610,1364,-68,-13604,89,336,100
17775212,1344,-100,-13864,65,320,107
17799212,1424,-188,-13648,69,355,126
17800812,1424,-188,-13648,69,355,126
17804712,1412,-116,-13672,120,288,125
17809612,1356,-144,-13672,121,322,133
17814412,1344,-112,-13684,108,334,165
17820312,1252,-100,-13708,84,338,126
17825112,1340,-148,-13644,96,345,137
17829912,1340,-100,-13632,92,346,128
17834712,1312,-40,-13744,86,332,119
17839512,1424,-36,-13708,93,331,135
17913712,1280,52,-13696,61,349,138
17915312,1280,52,-13696,61,349,138
17920112,1460,-16,-13768,95,337,124
17924912,1416,-32,-13744,82,350,110
17941912,1264,-180,-13780,76,360,118
17944512,1344,-88,-13772,92,340,123
17950412,1376,-92,-13696,55,355,118
17955212,1296,-156,-13724,75,345,116
18047910,1372,128,-13784,81,315,119
18049519,1292,-8,-13720,86,331,118
18054512,1372,88,-13652,89,378,119
18060412,1332,124,-13620,66,339,119
18065212,1400,64,-13776,92,319,125
18070012,1448,124,-13612,69,338,111
18074812,1436,-28,-13752,77,336,112
18079712,1284,76,-13584,83,320,105
18084512,1328,40,-13544,78,320,109
18090412,1352,-72,-13672,104,346,92
18095212,1424,44,-13772,78,319,107
18100012,1352,-24,-13596,77,336,114
18172312,1272,-172,-13788,89,357,143
18175112,1400,-112,-13812,92,333,114
18180012,1400,-80,-13488,76,347,119
18184812,1388,-4,-13724,81,347,115
18189612,1296,-80,-13784,78,358,133
18194412,1304,-88,-13728,45,346,118
18285712,1324,-244,-13664,73,308,121
18289771,1316,-164,-13772,94,363,129
18294612,1332,-136,-13540,99,332,143
18299412,1396,-148,-13748,75,333,121
18305312,1224,-44,-13756,61,350,114
18310112,1316,-76,-13784,97,346,129
18314912,1236,-168,-13704,63,341,127
18319812,1440,-236,-13804,81,334,125
18324612,1340,-120,-13624,85,354,124
18329412,1212,-48,-13500,25,333,108
18335312,1372,32,-13912,117,353,110
18340112,1260,-24,-13480,69,315,109
18344912,1312,-80,-13984,32,316,132
18349712,1404,-76,-13424,77,363,126
18423312,1256,-68,-13804,86,344,122
18424913,1256,-68,-13804,86,344,122
18438511,1412,-24,-13760,85,344,111
18440011,1412,-24,-13760,85,344,111
18444811,1316,-200,-13792,90,343,114
18537010,1264,-68,-13864,91,328,176
18539880,1372,-92,-13788,69,355,145
18544710,1364,-172,-13752,54,333,198
18549510,1352,-96,-13660,80,348,167
18555412,1460,-268,-13776,66,346,178
18560212,1424,-304,-13716,61,338,206
18565012,1388,-368,-13636,62,339,254
18569912,1404,-344,-13740,66,348,234
18574712,1376,-348,-13676,62,330,245
18579512,1304,-368,-13904,76,362,295
18585412,1360,-280,-13512,62,336,302
18590212,1348,-268,-13728,66,362,317
18595012,1376,-256,-13764,70,357,277
18599812,1316,-44,-13700,60,336,300
18604612,1400,-112,-13748,76,327,332
18678610,1360,-68,-13708,83,334,278
18680110,1360,-68,-13708,83,334,278
18684910,1416,-24,-13772,80,336,251
18775910,1412,-80,-13708,80,344,252
18800112,1256,0,-13792,78,326,238
18805212,1300,-48,-13788,54,341,262
18810012,1320,-36,-14016,59,353,232
18814812,1268,-112,-13708,82,324,242
18819612,1344,-176,-13624,67,321,248
18824412,1328,-244,-13672,59,309,265
18830312,1448,-132,-13692,72,347,259
18835212,1408,-348,-13600,85,325,274
18840012,1460,-256,-13716,79,363,303
18844812,1420,-228,-13568,83,337,327
18849612,1460,-212,-13720,76,353,329
18854412,1424,-312,-13660,78,335,343
18860312,1284,-176,-13560,58,319,352
18865112,1424,-224,-13704,75,353,345
18869912,1364,-180,-13772,75,330,357
18962410,1352,-236,-13820,64,338,348
19053112,1384,-168,-13716,68,352,449
19054712,1460,-276,-13736,89,335,452
19059612,1344,-20,-13620,50,313,456
19064412,1356,-8,-13672,86,336,477
19070312,1480,-236,-13728,79,338,477
19075112,1340,-108,-13636,29,320,483
19079912,1332,0,-13736,59,338,494
19084712,1420,-112,-13740,72,336,483
19089612,1364,0,-13828,31,334,515
19094412,1428,-140,-13672,76,345,487
19100312,1372,-92,-13712,91,329,507
19105112,1312,-64,-13732,78,330,516
19109912,1440,-136,-13628,60,333,494
19114712,1364,-160,-13616,58,343,523
19119512,1428,-112,-13704,71,362,518
19125412,1356,-128,-13664,75,353,509
19217710,1392,-132,-13632,60,343,589
19220312,1348,-116,-13700,63,323,614
19225112,1388,-212,-13640,59,315,597
19229912,1316,-240,-13588,51,333,619
19303312,1272,-408,-13924,25,326,788
19304912,1204,-152,-13652,59,324,795
19309712,1308,-244,-13820,63,335,805
19314512,1248,-344,-13716,77,329,818
19320412,1400,-372,-13744,46,328,833
19325312,1316,-212,-13836,25,330,849
19330112,1404,-212,-13864,67,334,865
19334912,1468,-236,-13760,71,293,878
19339712,1380,-252,-13648,35,332,865
19344512,1340,-304,-13608,61,312,878
19350412,1332,-324,-13568,68,342,915
19355212,1392,-408,-13720,36,309,934
19360012,1384,-196,-13564,47,337,930
19364912,1416,-316,-13668,77,323,944
19456112,1392,-4,-13776,24,305,1013
19473012,1360,-48,-13980,8,341,1030
19474512,1328,-332,-13564,64,334,993
19479412,1244,-48,-13652,45,323,1002
19485312,1248,-164,-13620,56,340,1019
19490112,1296,-36,-13588,30,347,1004
19564512,1364,-116,-13792,33,342,942
19569712,1300,-144,-13740,57,357,956
19574512,1512,-180,-13676,19,314,969
19580412,1400,-280,-13784,47,311,968
19585212,1412,-396,-13740,51,297,1010
19590012,1332,-628,-13732,45,313,1027
19594812,1292,-356,-13532,70,294,1071
19599712,1228,-320,-13728,62,327,1097
19604512,1256,-384,-13528,83,336,1125
19610412,1364,88,-13668,-21,349,1121
19615212,1440,476,-13680,48,334,1136
19620012,1396,600,-13740,54,338,1073
19711010,1368,-32,-13820,58,321,669
19714710,1364,-136,-13852,55,322,669
19719512,1512,-176,-13788,66,314,678
19725412,1304,-108,-13556,39,294,689
19730212,1392,-108,-13800,53,314,722
19735112,1412,-144,-13632,55,338,721
19739912,1480,-28,-13676,83,316,714
19744712,1468,-56,-13648,74,331,747
19843510,1436,-332,-13716,58,338,985
19845112,1380,-100,-13716,35,339,987
19850112,1420,-56,-13620,16,316,993
19854912,1316,-348,-13784,87,312,962
19859712,1380,-412,-13712,58,277,1020
19864512,1272,-648,-13780,32,285,1057
19869412,1244,-776,-13820,81,298,1119
19875312,1276,-180,-13632,20,307,1160
19880112,1260,-28,-13840,16,315,1152
19884912,1300,380,-13752,44,317,772
19974812,1320,508,-13908,85,271,746
19987112,1540,548,-13660,60,342,641
19989712,1448,468,-13712,64,321,598
19994512,1564,468,-13668,67,286,568
19999412,1460,612,-13680,64,339,508
20005312,1552,680,-13584,85,356,460
20010112,1648,616,-13620,93,335,413
20014912,1564,400,-13688,94,302,359
20019712,1496,476,-13540,68,324,330
20024512,1464,304,-13608,71,372,297
20098412,1332,-96,-13760,38,335,97
20100013,1372,-80,-13940,49,323,88
20104812,1344,-60,-13816,122,354,90
20109612,1372,-180,-13548,47,377,65
20114412,1272,-36,-13680,67,313,76
20120312,1300,-28,-13604,82,358,65
20125112,1344,112,-13824,55,345,59
20129912,1368,208,-13712,45,321,38
20134812,1284,-136,-13572,70,333,56
20224869,1212,-244,-13728,72,330,41
20229710,1304,-260,-13680,112,313,43
20234510,1424,-276,-13740,83,315,18
20240412,1320,-272,-13692,57,342,19
20245212,1472,-168,-13792,86,362,22
20250012,1500,-172,-13620,75,336,23
20254912,1404,-180,-13728,107,344,18
20259712,1392,-180,-13772,96,359,45
20264512,1388,-140,-13744,79,344,36
20270412,1376,-104,-13568,98,323,53
20275212,1308,-64,-13580,102,338,49
20347510,1344,-312,-13536,110,328,-64
20350110,1412,-404,-13584,32,383,-13
20354912,1496,-244,-13828,81,365,-17
20359712,1508,-216,-13824,113,316,-2
20364512,1304,-288,-13676,107,306,12
20370412,1288,-412,-13680,68,366,-8
20461510,1432,160,-13724,96,324,38
20475210,1356,92,-13760,64,346,44
20480010,1344,60,-13612,79,356,53
20484912,1372,84,-13700,83,341,73
20489712,1344,0,-13684,60,318,66
20494512,1412,-28,-13652,82,313,96
20500412,1472,-88,-13760,75,341,87
20505212,1468,-100,-13692,92,318,74
20510012,1448,-108,-13552,89,320,108
20514912,1296,-96,-13740,95,350,127
20519712,1368,-144,-13700,76,349,125
20524512,1416,-232,-13540,68,341,115
20530412,1376,-164,-13540,71,357,113
20535212,1352,-172,-13664,69,367,116
20607810,1384,-120,-13784,65,309,83
20609412,1424,-8,-13712,99,363,81
20615312,1492,16,-13756,96,358,89
20620112,1428,-28,-13820,62,303,75
20711210,1352,-168,-13636,82,340,91
20715012,1432,-208,-13560,72,348,115
20719812,1328,-152,-13664,56,355,113
20724612,1244,-184,-13736,88,361,102
20729412,1352,-212,-13740,91,358,107
20735312,1340,-176,-13752,80,336,121
20740112,1320,-256,-13480,82,318,119
20745012,1152,-236,-13044,23,439,105
20749812,1404,-232,-13380,-13,450,127
20754612,1632,-224,-14456,83,421,133
20759412,1784,-196,-15316,247,179,171
20765312,988,-268,-13600,148,-5,139
20770112,784,-404,-12784,100,586,145
20774912,1232,-336,-13528,-146,654,102
20779712,1392,464,-14072,104,125,121
20784612,1164,184,-13744,334,-6,137
20882612,1376,4,-13672,41,373,109
20975410,1664,-436,-13848,66,333,161
20987810,1704,-292,-13532,108,341,180
20990410,1672,-300,-13640,99,323,182
20995212,1576,-212,-13548,103,384,186
21000012,1476,-88,-13700,110,386,160
21004812,1332,60,-13724,60,384,177
21009612,1320,248,-13732,102,339,133
21014412,1320,248,-13732,102,339,133
21020312,1168,232,-13916,62,389,101
21025212,1112,492,-13748,56,337,93
21030012,1200,300,-13732,62,337,61
21034812,1088,168,-13708,79,321,62
21039612,1220,268,-13576,92,343,50
21044412,1220,268,-13576,92,343,50
21050312,1424,136,-13556,94,334,44
21055112,1492,108,-13616,76,311,50
21059912,1532,0,-13628,67,320,69
21152210,1356,-104,-13612,65,353,72
21154812,1564,-48,-13548,79,328,47
21228110,1352,-96,-13724,55,331,130
21229712,1500,-92,-13772,72,322,96
21234512,1500,-92,-13772,72,322,96
21240412,1440,44,-13604,65,326,106
21245212,1564,-68,-13676,69,355,124
21250012,1380,36,-13640,85,359,113
21254812,1416,-84,-13708,78,381,106
21259712,1420,16,-13664,99,335,95
21264512,1420,16,-13664,99,335,95
21270412,1352,-16,-13760,83,362,75
21275212,1256,-40,-13680,90,334,66
21280012,1264,-52,-13820,55,338,78
21284812,1268,-56,-13636,77,357,91
21289612,1268,-56,-13636,77,357,91
21294412,1268,80,-13752,82,363,80
21300412,1296,-40,-13744,109,338,101
21390210,1312,4,-13644,75,351,96
21395212,1340,-80,-13728,76,343,107
21400012,1344,-128,-13776,96,333,114
21404812,1412,-80,-13756,82,343,94
21475912,1296,28,-13572,58,330,107
21493010,1328,4,-13464,88,330,83
21494510,1328,4,-13464,88,330,83
21499610,1408,-48,-13720,75,337,88
21504410,1364,-52,-13712,70,334,100
21510310,1364,-40,-13796,76,335,97
21515112,1408,-112,-13592,48,344,102
21519912,1428,-4,-13572,99,339,112
21524712,1400,-20,-13564,98,355,88
21529612,1400,-20,-13564,98,355,88
21534412,1432,-108,-13548,72,333,126
21540312,1364,-140,-13772,95,349,81
21545112,1456,-104,-13776,62,342,111
21549912,1304,-32,-13728,76,334,93
21642110,1276,-96,-13748,67,344,124
21644710,1276,-96,-13748,67,344,124
21649512,1436,24,-13712,78,333,107
21655412,1368,-24,-13688,89,347,101
21660212,1436,-4,-13744,77,344,77
21665112,1460,-8,-13740,54,348,88
21736513,1428,-84,-13684,85,327,111
21740512,1488,-144,-13856,72,334,92
21745412,1404,-92,-13692,84,352,118
21750212,1412,-128,-13764,64,330,96
21755012,1296,-148,-13588,70,345,114
21759812,1296,-148,-13588,70,345,114
21764612,1296,-48,-13820,68,358,118
21769412,1324,-116,-13716,85,356,82
21775312,1492,-76,-14276,114,362,127
21780112,1320,-368,-13376,93,454,111
21785012,1304,-72,-13836,78,336,120
21902612,1300,16,-13704,76,360,95
21905312,1348,-88,-13696,78,329,101
21910212,1308,-84,-13744,101,329,107
21915012,1344,-76,-13716,96,347,108
21919812,1344,-76,-13716,96,347,108
21924612,1400,36,-13624,60,338,104
21948912,1420,8,-13792,97,336,76
21950413,1356,-24,-13828,66,348,94
21955412,1388,-124,-13576,83,359,93
22028111,1396,-132,-13908,83,329,116
22029611,1396,-132,-13908,83,329,116
22034511,1408,-92,-13904,63,320,113
22039411,1340,-132,-13724,73,336,101
22045311,1248,-248,-13588,72,350,89
22050111,1240,-68,-13616,73,337,101
22054911,1240,-68,-13616,73,337,101
22059711,1304,-44,-13644,90,336,122
22064511,1208,-156,-13684,87,344,105
22070411,1292,-144,-13644,78,353,86
22163812,1320,-104,-13852,31,343,103
22165413,1296,-32,-13772,83,323,112
22170212,1360,-116,-13740,111,325,88
22175012,1360,-116,-13740,111,325,88
22179812,1392,-28,-13556,32,343,103
22184712,1428,4,-13752,83,356,120
22189512,1544,-76,-13788,85,293,99
22195412,1356,-12,-13788,29,329,98
22200212,1428,-52,-13620,137,364,111
22205012,1428,-52,-13620,137,364,111
22278211,1276,28,-13524,108,329,93
22279811,1276,28,-13524,108,329,93
22284611,1384,12,-13644,86,307,115
22289411,1320,-60,-13644,77,356,101
22295311,1324,-60,-13688,69,334,113
22300111,1312,-88,-13736,86,335,128
22304911,1312,-88,-13736,86,335,128
22309711,1304,-60,-13572,75,318,99
22402010,1340,-16,-13768,92,338,95
22404714,1340,-16,-13768,92,338,95
22409512,1352,-64,-13708,79,363,96
22415412,1376,-92,-13672,72,342,100
22420212,1356,-108,-13812,72,336,95
22425012,1356,-108,-13812,72,336,95
22445612,1380,-96,-13800,72,346,108
22449412,1380,-96,-13800,72,346,108
22455412,1324,-40,-13648,82,314,86
22460212,1352,-32,-13784,110,370,91
22465012,1352,-32,-13784,110,370,91
22469812,1404,-80,-13704,81,326,118
22541812,1368,-160,-13660,72,347,101
22544412,1368,-160,-13660,72,347,101
22550312,1380,-44,-13776,91,348,116
22555112,1380,-44,-13776,91,348,116
22559912,1352,-48,-13672,68,343,89
22564812,1304,-56,-13676,82,368,89
22658112,1352,-88,-13784,74,337,85
22659612,1352,-88,-13784,74,337,85
22664512,1300,-136,-13676,72,337,82
22669412,1376,-96,-13820,78,320,114
22675312,1360,-188,-13652,51,354,98
22680112,1360,-188,-13652,51,354,98
22684912,1380,-56,-13784,88,330,103
22689712,1352,-92,-13736,91,335,108
22694512,1368,-180,-13768,111,352,74
22700412,1396,-156,-13648,89,367,95
22705212,1396,-156,-13648,89,367,95
22710112,1284,-164,-13728,76,332,93
22714912,1444,-196,-13668,92,335,117
22719712,1360,-176,-13768,103,325,89
22792610,1356,-28,-13552,79,340,100
22795210,1356,-28,-13552,79,340,100
22800112,1396,-16,-13772,75,341,102
22804912,1372,-20,-13780,83,333,115
22920313,1280,-48,-13668,83,336,133
22925313,1348,-20,-13892,84,343,109
22952512,1368,16,-13724,62,334,119
22955112,1368,16,-13724,62,334,119
22959912,1328,48,-13572,83,334,111
22964712,1356,4,-13708,71,369,122
22969512,1392,132,-13576,84,360,113
22975412,1404,60,-13716,94,326,74
22980212,1452,-8,-13704,93,339,88
22985012,1272,60,-13704,73,362,98
22989912,1352,-112,-13748,72,350,74
22994712,1364,-60,-13792,72,323,90
22999512,1356,-48,-13784,91,329,93
23005412,1404,-20,-13708,68,337,89
23010212,1356,-52,-13572,76,332,91
23015012,1332,-196,-13844,71,326,113
23086612,1336,-84,-13736,73,368,93
23089412,1336,-84,-13736,73,368,93
23182810,1356,-52,-13688,102,326,83
23184410,1356,-52,-13688,102,326,83
23189412,1252,-48,-13772,91,347,75
23195312,1316,8,-13744,82,340,110
23200112,1400,-128,-13788,75,339,88
23204912,1344,-48,-13672,83,340,102
23209712,1400,-32,-13704,71,356,96
23214612,1332,-144,-13880,58,373,85
23219412,1344,-180,-13692,96,326,102
23225312,1344,-124,-13656,103,338,105
23230112,1348,-132,-13752,80,318,89
23234912,1312,-148,-13696,88,351,104
23239712,1328,-268,-13704,90,369,95
23244512,1376,-64,-13700,84,367,101
23250412,1344,-212,-13600,74,342,110
23255312,1268,-60,-13796,92,321,113
23348812,1428,-104,-13880,66,317,101
23350413,1428,-104,-13880,66,317,101
23424211,1500,-172,-13208,123,352,65
23425811,1460,-116,-13972,200,268,83
23460312,1220,-60,-13672,108,335,102
23465112,1192,-88,-13768,61,359,119
23469912,1400,52,-15348,90,851,123
23474712,788,-1312,-8452,125,259,60
23479512,2124,492,-17648,303,-519,98
23485412,820,-388,-12904,-605,358,68
23490212,1376,352,-12368,603,826,79
23495012,1780,-656,-15448,-282,299,59
23499912,1204,8,-12348,264,110,92
23504712,1264,-276,-13384,22,287,88
23509512,1404,-168,-14856,42,346,77
23515412,1392,-96,-13120,100,403,65
23520212,1632,-120,-13576,104,388,87
23525012,1448,-164,-14056,49,268,87
23529812,1332,36,-13268,72,355,83
23621310,1652,128,-13056,-141,612,110
23625313,1652,128,-13056,-141,612,110
23630110,1460,-68,-14804,-54,270,111
23703710,1280,4,-13760,102,277,51
23705210,1280,4,-13760,102,277,51
23710112,1388,104,-13524,56,360,36
23714912,1464,188,-13864,73,370,63
23719712,1420,52,-13600,71,327,31
23724512,1452,76,-13644,72,325,34
23730412,1372,-48,-13736,63,353,44
23735212,1444,-32,-13692,60,338,41
23740112,1460,-96,-13676,107,361,62
23744912,1392,-128,-13728,50,352,26
23749712,1380,-12,-13212,65,148,62
23754512,1352,-32,-14300,183,387,73
23760412,1284,-208,-14472,92,254,76
23765212,1180,-212,-13208,-2,477,77
23770012,1224,72,-13276,46,414,22
23859912,1224,72,-13276,46,414,22
23864912,1308,-8,-14004,80,294,43
23869712,1340,-24,-13652,55,234,44
23874512,1452,-44,-13532,52,430,52
23880412,1592,-164,-13720,62,357,52
23975412,1448,-168,-13424,7,384,76
23991310,1404,-176,-13468,65,351,88
23995010,1404,-176,-13468,65,351,88
23999812,1320,-236,-13668,39,381,90
24004612,1280,-52,-13772,106,339,124
24009412,1332,-20,-13872,130,316,135
24015312,1176,-16,-13700,61,368,133
24020112,1252,-48,-13816,61,341,120
24024912,1148,-100,-13692,56,336,130
24029812,1148,12,-13752,85,337,102
24034612,1140,-72,-13632,95,336,99
24039412,1372,88,-13668,83,362,119
24133810,1384,-84,-13692,49,331,130
24135312,1384,-84,-13692,49,331,130
24140212,1372,-112,-13644,54,320,123
24145112,1508,-36,-13652,60,336,117
24149912,1452,-88,-13604,80,350,108
24154712,1480,-36,-13356,81,350,130
24159512,1420,-108,-13616,55,343,129
24165412,1416,-112,-13672,75,340,115
24238212,1520,-168,-13564,67,350,130
24239812,1520,-168,-13564,67,350,130
24244612,1484,-216,-13684,69,344,120
24249412,1512,-136,-13536,84,353,131
24255312,1512,-148,-13688,83,318,133
24260112,1416,-64,-13632,72,364,113
24264912,1364,-64,-13604,75,377,110
24269812,1352,-80,-13760,87,350,126
24274612,1252,36,-13728,68,330,113
24279412,1268,-48,-13708,106,344,100
24371310,776,-592,-12952,-149,-89,147
24375010,776,-592,-12952,-149,-89,147
24379912,660,-164,-13100,248,980,68
24384712,1792,112,-14968,-282,652,52
24389512,1432,4,-13256,-10,388,115
24395412,1404,-12,-13372,313,-10,136
24400212,1220,-64,-14016,55,220,74
24405012,1220,-72,-13644,-125,643,53
24409812,1380,-44,-13552,-3,488,82
24414612,1600,-8,-13876,125,279,93
24488112,1424,-88,-14704,105,395,104
24500312,1288,-184,-13476,122,346,124
24505312,1456,-108,-14216,116,263,87
24510112,1256,-100,-13628,121,274,97
24514912,1352,-96,-13796,94,380,101
24519812,1188,-360,-13052,34,278,100
24524612,1728,1096,-15124,-81,-307,52
24529412,1588,-824,-11400,460,2230,195
24620869,1332,-220,-13472,143,236,96
24624710,1348,-324,-13640,102,435,74
24629510,1380,-204,-13712,-1,379,84
24634412,1376,-208,-13704,114,390,90
24640312,1296,-84,-13832,127,296,99
24645112,1140,-8,-13792,46,377,98
24649912,1260,-148,-13516,28,419,113
24654712,1356,-124,-14000,82,358,87
24659512,1252,20,-13544,69,350,108
24665412,1256,-64,-13592,88,302,93
24670212,1408,364,-13892,111,372,122
24675112,1556,-532,-14632,226,1208,136
24749012,2108,-1064,-14588,656,441,165
24750612,2108,-1064,-14588,656,441,165
24755412,792,-612,-12324,-11,-346,110
24760212,932,428,-14768,-556,543,35
24765012,1564,148,-12556,-91,1039,71
24769912,1424,124,-14072,-17,382,131
24859912,1424,124,-14072,-17,382,131
24864812,1304,56,-13172,183,297,110
24869612,1492,328,-13732,149,448,118
24874512,1340,124,-14092,59,307,137
24880412,1148,340,-13644,104,305,128
24885212,1132,348,-13392,42,350,133
24890012,1324,1292,-15640,-108,400,112
24894812,920,-1068,-12996,444,1501,143
24899612,1440,-248,-12284,286,-196,89
24904412,844,52,-15340,-601,71,53
24910312,1188,132,-13016,597,765,74
24915212,1752,-260,-14236,-63,65,44
24920012,1288,-48,-13424,62,413,68
24924812,1356,-180,-13036,131,368,85
25036412,1404,-36,-14020,133,419,79
25040312,1404,-36,-14020,133,419,79
25045112,1488,60,-13512,218,284,71
25136512,1308,40,-13480,43,363,71
25140312,1308,40,-13480,43,363,71
25145212,1228,-248,-13760,237,285,104
25150012,1264,-244,-13876,131,155,74
25154812,1192,-128,-13800,16,376,51
25159612,1004,-204,-13696,-28,514,66
25164412,1036,756,-15260,-465,193,24
25170312,1212,-316,-12036,704,1097,135
25175212,1532,-1120,-14540,258,-149,119
25180012,1332,0,-15016,27,223,74
25184812,640,-352,-12844,-249,1060,50
25189612,1668,-244,-12772,230,751,51
25194412,2032,-384,-13880,-76,-182,148
25200312,1164,60,-15152,249,77,146
25205112,1336,-24,-11748,72,495,159
25209912,1640,124,-15044,-130,679,129
25302210,1612,-84,-13600,167,364,112
25379769,1480,40,-13808,85,310,87
25384710,1508,108,-13568,123,341,94
25389510,1424,36,-13752,128,334,79
25394412,1380,72,-13724,91,349,62
25400312,1280,8,-13696,75,356,60
25405112,1264,8,-13756,90,338,83
25409912,1268,-48,-13756,71,369,59
25414712,1100,60,-12228,274,-164,58
25419512,1944,1180,-16896,346,-416,77
25425412,1328,-300,-11300,1185,837,217
25435310,796,-292,-12452,155,1119,23
25440110,1736,80,-10736,-804,550,36
25444912,1972,-184,-16112,746,422,200
25449712,1668,-588,-14956,482,-603,159
25454512,824,-180,-11144,-204,326,135
25460412,956,-372,-14804,4,1312,108
25552610,1160,32,-13564,-9,344,93
25555312,1160,32,-13564,-9,344,93
25560112,1588,0,-15108,292,409,118
25564912,1400,-156,-13080,58,259,109
25637312,1704,-864,-11572,498,-1077,82
25640112,1704,-864,-11572,498,-1077,82
25644912,1348,552,-17288,748,-278,208
25649712,1268,-716,-14104,-653,879,104
25654512,484,-588,-12300,-738,1232,-8
25660412,2060,180,-12980,1033,710,218
25665212,1860,-564,-14884,294,-864,167
25670012,476,-76,-14276,-841,423,46
25674812,820,-420,-11892,575,2012,40
25679712,2028,40,-13580,-448,92,72
25684512,1420,32,-15140,-165,80,150
25690412,1104,196,-12304,622,269,120
25695212,1904,-264,-14676,-83,620,81
25700012,1284,-192,-13716,38,337,74
25790212,1284,-192,-13716,38,337,74
25795112,1296,-104,-13756,46,355,70
25799912,1276,-76,-13776,195,240,100
25804712,1380,-176,-13792,102,278,92
25809612,1364,-184,-13660,-17,411,78
25814412,1544,-64,-13836,72,363,80
25889010,852,-40,-14700,142,732,122
25890510,852,-40,-14700,142,732,122
25895412,1612,-204,-14128,136,64,87
25900212,1404,160,-13436,136,279,82
25905012,1288,-324,-13372,351,457,110
25909912,1248,-332,-14208,-155,243,73
25914712,1096,-232,-13132,-10,431,79
25919512,1644,-52,-13888,255,374,96
25925412,1576,-380,-13784,31,197,100
25938812,1444,-152,-13820,21,431,97
25940313,1444,-152,-13820,21,431,97
25945212,1460,-124,-13716,179,310,100
25950012,1248,-220,-13532,68,253,107
26066612,364,-176,-11652,335,43,100
26069512,576,-412,-11920,-721,311,24
26074412,1248,64,-14316,193,1828,66
26080312,1864,-476,-13176,-256,239,129
26085212,2160,280,-16492,641,-558,189
26090012,964,-480,-10552,112,-151,85
26094812,1188,-372,-14300,-35,1047,96
26169112,1500,-120,-13840,149,274,52
26170612,1500,-120,-13840,149,274,52
26174412,1452,-144,-13948,93,229,64
26180312,1484,-132,-13644,18,422,79
26185212,1640,-64,-13496,24,462,66
26190012,1636,-132,-13716,114,302,95
26194812,1504,-84,-13592,188,215,101
26199612,1420,-52,-13924,90,328,107
26204412,1208,-80,-13704,40,440,90
26210312,1384,-48,-13764,65,398,105
26215212,1284,-60,-13536,118,312,144
26306412,1336,-128,-13820,107,361,84
26310112,1300,-104,-13624,54,366,94
26314912,1324,-88,-13728,112,335,109
26319812,1388,-156,-13764,97,332,106
26324612,1288,-108,-13704,72,327,113
26329412,1272,-52,-13740,85,360,97
26335312,1512,-116,-13808,80,351,108
26340112,1468,-116,-13588,90,336,120
26344912,1420,-116,-13624,96,342,104
26418410,1296,-124,-13620,86,330,89
26420012,1296,-124,-13620,86,330,89
26424812,1404,-100,-13628,72,345,86
26434612,1420,-164,-13736,78,351,101
26439512,1348,-168,-13620,80,334,100
26444412,1488,-144,-13664,68,349,111
26450312,1484,-132,-13632,75,385,134
26455112,1460,-28,-13772,82,366,103
26459912,1356,-68,-13712,86,359,119
26553412,844,-276,-15468,392,1093,66
26555013,844,-276,-15468,392,1093,66
26559812,1204,164,-8300,-343,483,64
26564612,1684,-144,-18416,-333,788,166
26569412,1484,264,-13400,486,-286,84
26575412,1380,76,-12072,364,224,128
26580212,1080,-304,-14108,-314,651,122
26585012,1432,208,-13956,23,573,93
26589812,1716,-232,-13896,275,139,105
26594612,1432,36,-14156,216,84,136
26599412,1104,-384,-12192,-55,424,90
26673512,1452,-84,-13816,98,318,108
26675112,1452,-84,-13816,98,318,108
26679912,1408,-76,-13416,140,272,141
26684712,1316,4,-13588,94,343,115
26689512,1392,-52,-13896,47,384,127
26694412,1504,16,-13776,69,404,109
26700312,1344,-72,-13640,106,315,128
26792412,1288,-100,-13632,101,333,111
26795212,1288,-100,-13632,101,333,111
26800112,1352,-44,-13748,102,337,122
26804912,1348,-36,-13700,87,331,117
26809712,1504,-60,-13768,99,362,102
26814512,1304,-64,-13720,95,340,109
26820412,1300,-116,-13724,76,324,117
26825212,1304,-156,-13764,84,348,114
26830012,1356,-64,-13672,68,332,100
26834812,1372,-56,-13620,92,315,103
26839712,1408,-120,-13636,87,343,85
26844512,1404,-100,-13672,93,322,87
26850412,1424,-20,-13716,81,359,90
26923510,1400,16,-13680,62,317,90
26925010,1400,16,-13680,62,317,90
26942110,1436,76,-13808,70,345,100
26944710,1316,-60,-13744,64,354,93
26949510,1464,-44,-13720,74,349,113
26954412,1416,-56,-13800,85,359,91
27070812,1464,-80,-13776,77,318,110
27074612,1372,-44,-13668,72,339,82
27079412,1368,64,-13744,76,350,65
27085412,1352,-40,-13636,65,348,70
27090212,1352,-8,-13656,96,294,90
27095012,1376,-40,-13664,106,357,96
27099812,1340,0,-13644,74,352,95
27104612,1400,-96,-13628,83,350,83
27109412,1432,-20,-13608,101,347,90
27115312,1448,-76,-13800,104,329,102
27120112,1392,-120,-13556,68,344,94
27125012,1436,-112,-13556,70,378,108
27129812,1384,-28,-13560,106,372,112
27134612,1316,-196,-13804,86,357,113
27206210,1380,-116,-13656,66,354,70
27210010,1392,-44,-13528,75,357,98
27214810,1488,-80,-13552,68,356,92
27306810,1340,-184,-13828,100,360,91
27309410,1360,-116,-13920,130,304,91
27315312,1288,-92,-13852,132,308,93
27320112,1376,-152,-13504,117,378,100
27324912,1508,-256,-13832,113,338,88
27329812,1452,-156,-13840,172,280,97
27334612,1460,-192,-13596,159,352,115
27339412,1516,-260,-13556,138,386,101
27345312,1372,-84,-13792,79,377,108
27350112,1508,-112,-13684,161,334,129
27354912,1336,0,-13660,123,363,180
27359712,1788,-328,-13732,72,381,182
27364512,1244,268,-13552,60,319,148
27369412,1424,-16,-13840,103,423,140
27375312,1304,92,-13772,107,335,161
27380112,1280,160,-13716,76,287,152
27471110,1216,-196,-13736,85,354,106
27561010,1324,0,-13656,88,337,56
27564710,1304,-40,-13600,81,332,54
27569612,1352,-56,-13708,84,323,76
27574412,1424,-140,-13888,93,322,62
27580312,1364,-168,-13808,71,332,86
27585112,1372,-232,-13676,75,337,96
27589912,1440,-284,-13736,88,320,97
27594712,1412,-228,-13588,87,332,128
27599612,1520,-284,-13680,78,346,131
27604412,1468,-300,-13664,74,335,149
27610312,1456,-268,-13744,72,369,142
27615112,1404,-148,-13628,88,349,151
27619912,1308,-164,-13976,85,360,134
27624712,1324,-140,-13720,96,359,127
27629512,1304,-92,-13552,82,360,124
27635412,1100,-152,-13516,23,537,144
27725521,1100,-152,-13516,23,537,144
27729512,1200,-60,-13544,14,411,145
27735412,1148,-132,-14064,181,197,146
27740212,1040,-276,-13992,147,231,117
27813710,1236,392,-13660,79,323,59
27815212,1236,392,-13660,79,323,59
27820112,1260,412,-13492,100,316,75
27825012,1304,300,-13700,76,345,64
27829812,1468,212,-13860,66,354,64
27834612,1584,200,-13676,76,337,63
27839412,1564,152,-13640,65,329,73
27845312,1680,180,-13528,77,326,76
27850112,1672,24,-13776,80,348,102
27855012,1660,88,-13608,119,357,86
27859812,1664,-108,-13724,92,349,116
27864612,1568,-68,-13708,70,375,125
27869412,1532,-80,-13668,90,341,118
27964012,1464,-112,-13548,94,379,127
27976412,1188,-60,-13728,102,355,125
27980113,1240,-4,-13724,93,348,146
27985012,1084,100,-13836,68,366,145
27989812,1232,140,-13772,96,360,145
27994612,1232,176,-13784,98,317,148
27999412,1252,140,-13844,78,308,123
28095611,1256,-232,-13800,70,320,104
28099511,1364,-176,-13828,73,334,109
28105411,1420,-340,-13692,84,345,129
28110211,1464,-348,-13768,94,320,120
28115011,1492,-232,-13444,94,333,98
28119811,1644,-200,-13720,89,346,111
28124611,1508,-172,-13496,93,348,103
28129411,1608,-56,-13840,99,347,110
28135311,1456,72,-13576,112,352,128
28140211,1432,-64,-13640,110,369,112
28145011,1392,12,-13488,64,346,101
28236110,1220,-328,-13680,82,341,103
28239810,1208,-240,-13740,94,344,87
28244612,1248,-240,-13756,80,353,97
28249412,1232,-288,-13744,88,351,71
28255312,1200,-228,-13920,85,339,78
28260112,1104,-164,-13892,74,307,98
28264912,1180,-280,-13860,73,335,91
28269712,1268,-240,-13780,49,335,90
28274612,1304,-276,-13628,89,315,78
28347910,1216,120,-13696,94,319,85
28349512,1216,120,-13696,94,319,85
28355412,1288,60,-13584,63,359,75
28360212,1296,-40,-13716,100,332,91
28365012,1360,-32,-13572,74,361,83
28369812,1428,-48,-13656,110,332,74
28374612,1480,-188,-13756,71,317,74
28379412,1352,-240,-13820,103,326,77
28473912,1468,-132,-13772,87,331,121
28487310,1400,-96,-13740,76,372,105
28490010,1360,-152,-13832,72,339,114
28494812,1392,-120,-13700,93,355,128
28499612,1432,-52,-13736,97,331,117
28504412,1336,36,-13712,96,353,102
28510412,1316,44,-13604,94,357,97
28515212,1304,48,-13632,94,339,99
28520012,1320,0,-13520,80,346,112
28524812,1352,8,-13556,88,321,108
28529612,1336,-8,-13784,58,330,97
28534412,1380,48,-13680,66,339,109
28606012,1316,12,-13744,85,337,83
28610013,1192,-76,-13680,103,342,60
28614812,1300,32,-13640,94,346,91
28619612,1372,-120,-13692,63,332,63
28624412,1372,-148,-13724,84,353,77
28630412,1336,-20,-13756,66,329,73
28722712,1264,-76,-13792,51,343,81
28725412,1352,-76,-13724,87,342,115
28730312,1376,-76,-13612,77,339,70
28735112,1280,-236,-13796,96,339,78
28739912,1280,-44,-13612,64,347,65
28744712,1440,-164,-13540,62,361,65
28749512,1432,-184,-13692,78,345,66
28755412,1448,-132,-13800,63,337,68
28760312,1476,-68,-13720,66,339,66
28765112,1380,-136,-13576,76,347,64
28769912,1384,-44,-13764,77,339,73
28774712,1360,-180,-13740,78,324,102
28779512,1392,-68,-13664,72,333,89
28785412,1472,-32,-13800,93,345,84
28857210,1348,-176,-13704,86,337,113
28860010,1352,-76,-13812,88,332,112
28864811,1328,-204,-13592,97,349,93
28869611,1232,48,-13748,89,333,115
28959412,1308,8,-13560,94,346,105
28973013,1332,16,-13684,74,370,96
28974512,1352,-108,-13716,86,346,99
28979412,1452,-48,-13656,66,346,72
28985312,1324,-76,-13832,62,353,81
28990112,1356,-100,-13808,95,351,92
28995012,1268,-200,-13772,75,350,98
28999812,1312,-240,-13772,86,339,93
29004612,1380,-236,-13604,107,315,87
29009412,1312,-184,-13728,88,343,94
29015312,1296,-284,-13716,97,339,80
29020112,1412,-176,-13744,83,342,113
29024912,1396,-132,-13696,64,361,108
29029712,1320,-84,-13464,66,353,114
29034612,1420,-116,-13744,80,330,115
29039412,1336,-132,-13784,101,344,93
29135912,1316,-64,-13612,73,333,108
29139712,1408,-36,-13612,101,335,79
29233110,1348,-144,-13720,77,359,90
29234710,1508,0,-13848,93,349,63
29239712,1388,-80,-13548,89,329,79
29244512,1272,-56,-13716,84,344,104
29250412,1408,-88,-13536,81,340,102
29255212,1468,-116,-13684,71,335,94
29260012,1424,-24,-13632,77,338,99
29264912,1344,-12,-13712,96,323,116
29269712,1392,-44,-13680,83,353,78
29274512,1412,12,-13720,60,355,111
29280412,1404,-16,-13576,73,348,107
29285212,1336,-32,-13620,84,355,91
29290012,1376,-40,-13708,82,328,90
29294812,1400,-104,-13792,74,347,114
29299612,1344,-48,-13844,103,328,99
29304512,1296,36,-13784,99,360,101
29399011,1232,-20,-13776,90,360,113
29400611,1232,-20,-13776,90,360,113
29474610,1388,-128,-13752,78,375,111
29491712,1312,-116,-13676,61,330,120
29495412,1292,-144,-13576,72,350,109
29500212,1388,-152,-13896,87,337,113
29505112,1372,-120,-13716,81,351,98
29509912,1336,-164,-13656,75,347,77
29514712,1316,-92,-13480,89,365,75
29519512,1372,-196,-13792,92,335,88
29525412,1492,-76,-13584,83,330,86
29530212,1324,-60,-13536,92,352,74
29535012,1368,-140,-13652,57,360,100
29539812,1360,-60,-13860,70,350,70
29544712,1420,-68,-13688,80,321,84
29549512,1460,-40,-13604,97,338,82
29555412,1348,-72,-13576,62,345,106
29560212,1420,-48,-13712,86,359,78
29654012,1296,-76,-13624,83,355,66
29655612,1296,-76,-13624,83,355,66
29660412,1348,-112,-13776,68,352,113
29665212,1276,-52,-13688,82,325,78
29737510,1280,-48,-13500,73,349,125
29740110,1452,-4,-13756,95,358,99
29744912,1416,96,-13544,68,338,114
29749712,1284,4,-13716,67,356,98
29754512,1432,32,-13652,89,352,110
29760412,1448,-20,-13860,87,340,106
29765212,1380,8,-13720,73,331,89
29770012,1368,40,-13728,75,339,88
29774912,1388,-68,-13680,108,336,119
29779712,1352,96,-13656,76,321,98
29784512,1472,144,-13612,83,358,82
29790412,1420,44,-13704,55,353,66
29795212,1480,-88,-13808,80,318,75
29800012,1368,36,-13648,91,304,90
29891110,1352,28,-13652,70,348,87
29895012,1260,-84,-13772,70,337,85
29899812,1400,72,-13808,87,352,71
29904612,1424,-48,-13612,72,337,87
29909412,1412,0,-13884,49,356,97
29915312,1316,-28,-13584,84,338,94
29985512,1420,-108,-13708,84,322,80
30006310,1340,-84,-13648,102,344,49
30010010,1288,-144,-13748,51,363,63
30014812,1328,-84,-13500,100,324,99
30019612,1380,-248,-13600,75,347,98
30024412,1284,-216,-13460,62,362,71
30030312,1324,-140,-13912,82,303,80
30035112,1352,-276,-13688,99,321,93
30039912,1324,-296,-13588,47,376,114
30044812,1348,-192,-13880,68,312,128
30049612,1308,-348,-13524,89,351,112
30054412,1392,-216,-13844,50,357,121
30169410,1448,-16,-13588,78,352,87
30174470,1420,8,-13532,79,340,87
30180410,1484,-100,-13596,85,327,89
30185210,1420,-68,-13720,75,350,98
30190012,1308,-20,-13824,86,329,72
30194812,1312,-220,-13560,91,344,80
30199612,1380,-176,-13752,81,319,98
30204512,1288,-136,-13660,64,337,97
30277212,1332,-104,-13604,119,351,110
30280010,1448,-96,-13752,80,336,102
30284812,1408,-40,-13748,99,336,119
30289612,1360,-36,-13692,88,368,87
30294412,1340,-56,-13848,86,338,135
30300412,1336,-56,-13732,78,322,117
30305212,1404,-172,-13724,84,357,128
30310012,1360,-60,-13772,77,339,110
30314812,1348,-116,-13780,62,349,101
30407510,1388,16,-13740,84,327,115
30410381,1440,-16,-13708,109,320,89
30415210,1412,-16,-13700,80,348,83
30420010,1444,80,-13676,79,334,74
30424812,1352,-64,-13580,89,343,104
30449112,1304,-28,-13824,71,334,113
30450612,1304,-28,-13824,71,334,113
30454512,1352,-80,-13596,57,343,97
30460412,1284,-68,-13516,91,331,97
30465212,1528,-72,-13892,85,331,110
30470012,1412,-16,-13696,70,340,101
30542312,1352,-156,-13712,79,340,93
30544912,1152,-156,-13804,100,346,99
30549712,1336,-280,-13760,115,355,79
30554512,1388,-128,-13752,89,337,114
30559412,1368,-160,-13752,82,343,116
30565312,1428,-84,-13676,62,315,111
30570112,1320,-164,-13728,92,346,117
30574912,1348,-120,-13800,93,336,96
30668612,1368,-92,-13676,83,353,94
30670112,1376,-92,-13852,76,380,89
30675012,1388,-184,-13796,94,313,103
30679812,1344,-116,-13668,73,311,112
30684712,1380,-164,-13612,65,359,102
30689512,1416,-172,-13564,83,363,90
30695412,1332,-144,-13740,79,342,89
30700212,1452,-120,-13664,87,321,89
30705012,1304,-144,-13648,78,333,122
30709812,1408,-24,-13756,86,334,100
30714712,1412,-32,-13756,85,344,114
30719512,1460,-48,-13628,89,357,91
30792912,1412,-40,-13688,85,336,77
30794512,1288,-204,-13652,88,343,75
30800412,1456,-68,-13724,83,349,82
30805212,1364,-56,-13692,97,347,89
30810012,1376,-144,-13748,102,343,89
30814812,1420,-200,-13724,64,362,86
30906710,1392,-48,-13768,82,349,99
30909412,1404,-120,-13672,71,350,96
30915312,1404,-144,-13716,99,352,101
30920112,1364,-104,-13756,83,351,110
30924912,1304,-32,-13672,83,340,98
30934912,1352,-128,-13832,80,339,88
30939812,1324,-92,-13800,121,335,105
30944712,1352,-140,-13760,100,334,112
30949512,1420,-64,-13812,87,347,93
30955412,1400,-112,-13660,107,331,105
30960212,1392,-68,-13608,78,326,97
30965012,1380,-132,-13644,72,339,98
30969812,1420,-8,-13624,78,298,113
30974712,1396,-56,-13736,76,323,98
31047410,1412,-60,-13716,63,358,67
31050210,1400,-76,-13596,78,338,87
31055012,1444,-136,-13812,84,349,99
31059812,1344,-124,-13764,91,354,106
31177612,1344,-120,-13768,82,362,81
31180312,1244,-156,-13812,81,341,79
31185312,1416,-140,-13624,95,343,100
31190112,1372,-176,-13636,82,341,78
31194912,1344,-84,-13776,92,353,94
31199712,1428,-148,-13632,80,342,104
31204512,1300,-24,-13620,101,332,99
31209412,1376,-144,-13944,80,330,97
31215312,1308,-84,-13772,78,370,123
31220112,1416,-104,-13668,84,357,108
31224912,1464,-128,-13788,102,308,113
31229712,1364,-188,-13560,95,312,113
31234512,1312,-228,-13824,89,353,118
31240412,1356,-52,-13756,62,326,108
31245212,1328,-140,-13760,74,349,136
31250112,1428,-96,-13724,81,335,121
31323410,1400,-24,-13572,61,317,85
31325012,1452,-68,-13684,65,347,98
31416612,1348,-176,-13568,91,352,82
31420574,1388,-60,-13596,90,353,94
31425412,1396,-248,-13680,92,347,84
31438712,1412,-52,-13672,91,328,101
31440212,1336,-140,-13820,75,339,108
31445112,1356,-116,-13992,59,335,103
31449912,1268,-4,-13760,99,327,95
31454712,1396,-80,-13832,98,328,111
31459612,1428,-8,-13592,55,328,108
31464412,1428,-8,-13592,55,328,108
31470312,1400,56,-13772,99,326,90
31475112,1312,-44,-13688,106,345,116
31479912,1392,8,-13696,77,325,119
31484712,1392,0,-13716,71,324,92
31489512,1372,52,-13708,81,343,101
31495412,1336,-96,-13688,86,360,102
31500312,1356,-72,-13676,65,335,98
31505112,1360,-112,-13864,80,344,109
31669010,1408,-28,-13736,90,366,93
31670769,1460,-104,-13732,84,364,80
31674510,1372,-64,-13804,89,335,100
31680410,1408,-96,-13696,61,359,101
31685212,1404,-56,-13632,86,351,81
31690012,1436,-108,-13600,84,355,100
31694812,1428,-200,-13684,78,344,110
31699712,1388,-92,-13800,74,350,115
31704512,1388,-92,-13800,74,350,115
31710412,1280,-148,-13724,101,346,109
31715212,1348,-136,-13748,90,313,118
31720012,1268,-96,-13708,89,339,91
31724812,1500,-148,-13792,85,366,105
31729612,1328,-124,-13684,73,332,91
31734412,1328,-124,-13684,73,332,91
31740412,1396,-136,-13724,93,339,101
31745212,1324,-192,-13696,61,355,114
31834812,1352,12,-13712,62,348,112
31839812,1296,-92,-13784,96,341,89
31844712,1368,-116,-13644,64,335,103
31917810,1396,-104,-13640,64,320,74
31920410,1260,-132,-13588,108,326,121
31925212,1324,-40,-13644,67,365,113
31935212,1436,-32,-13828,79,319,91
31940112,1468,4,-13800,60,340,111
31944912,1352,-32,-13756,93,341,102
31949812,1408,-136,-13692,90,350,94
31954612,1408,-136,-13692,90,350,94
31959412,1456,-112,-13740,80,366,89
31965312,1412,-68,-13796,84,355,109
31970112,1324,-92,-13592,100,366,95
31974912,1380,-140,-13752,76,365,106
31979712,1376,-136,-13660,78,337,96
31984512,1376,-136,-13660,78,337,96
31989412,1364,-156,-13868,77,344,101
32081670,1236,-8,-13708,61,358,83
32085510,1316,-92,-13760,56,332,84
32090310,1364,4,-13896,96,351,88
32095212,1396,-100,-13692,94,350,102
32100012,1372,-124,-13776,94,325,115
32196410,1388,-68,-13812,112,339,78
32200210,1352,-48,-13772,93,343,115
32205112,1404,8,-13796,97,336,99
32209912,1304,-136,-13788,80,358,106
32214712,1304,-136,-13788,80,358,106
32219512,1316,-120,-13580,101,337,88
32225412,1316,-144,-13764,68,342,98
32230212,1364,-28,-13560,90,339,116
32235112,1440,-56,-13600,71,372,111
32239912,1568,-56,-13768,102,345,104
32244712,1568,-56,-13768,102,345,104
32249512,1452,-92,-13652,76,329,116
32342911,1388,-84,-13824,62,375,109
32344511,1388,-84,-13824,62,375,109
32350411,1408,24,-13584,80,313,99
32355211,1264,-20,-13596,74,364,116
32360011,1296,-20,-13672,76,369,113
32364811,1296,-20,-13672,76,369,113
32369611,1512,40,-13796,78,350,112
32374411,1424,-124,-13580,104,331,105
32447410,1348,-32,-13740,91,339,96
32459711,1420,-160,-13736,80,351,102
32464711,1468,-112,-13796,71,343,101
32469511,1360,-92,-13572,64,314,84
32475411,1420,-196,-13544,71,385,86
32480211,1352,-204,-13788,47,361,73
32485111,1400,-68,-13768,100,309,97
32489911,1384,-76,-13768,78,328,98
32494711,1384,-76,-13768,78,328,98
32499511,1448,-148,-13716,65,355,101
32591912,1412,-12,-13804,98,322,102
32594712,1412,-12,-13804,98,322,102
32599612,1452,-68,-13712,82,329,84
32604412,1384,-40,-13608,77,349,100
32610312,1404,-52,-13828,71,351,95
32615112,1372,-80,-13572,82,335,84
32619912,1372,-80,-13572,82,335,84
32624712,1376,-12,-13676,84,343,107
32629512,1412,-56,-13792,105,341,112
32635412,1448,-8,-13792,85,349,107
32707711,1360,-88,-13708,78,322,87
32709468,1360,-88,-13708,78,322,87
32715411,1468,-80,-13816,76,347,93
32720211,1392,-128,-13648,86,341,92
32725011,1480,-188,-13608,85,336,94
32729811,1480,-188,-13608,85,336,94
32734611,1372,-88,-13628,94,321,115
32739511,1348,-92,-13560,66,362,81
32829512,1348,-92,-13560,66,362,81
32834412,1260,-192,-13788,42,356,83
32840312,1276,-4,-13812,124,352,92
32845212,1304,-108,-13764,96,333,59
32850012,1304,-108,-13764,96,333,59
32854812,1412,-92,-13660,92,368,85
32859612,1364,-208,-13824,86,334,96
32864412,1360,-60,-13588,83,351,98
32870312,1332,-52,-13784,93,350,99
32875112,1408,-80,-13796,83,344,112
32879912,1408,-80,-13796,83,344,112
32884812,1248,-196,-13764,68,343,88
32956712,1432,-84,-13700,88,314,97
32973910,1216,-96,-13656,74,338,97
32975410,1420,-116,-13672,66,362,99
32979410,1420,-116,-13672,66,362,99
32985310,1340,-80,-13736,78,335,108
32990110,1340,-80,-13736,78,335,108
33082012,1316,-132,-13776,87,324,98
33084812,1316,-132,-13776,87,324,98
33089612,1440,44,-13724,70,323,80
33094412,1316,-36,-13908,94,336,108
33100312,1344,-156,-13796,81,358,83
33105212,1332,-128,-13764,71,332,84
33110012,1332,-128,-13764,71,332,84
33114812,1348,-100,-13692,70,346,79
33119612,1380,-180,-13720,88,348,92
33124412,1308,-128,-13688,74,331,97
33130312,1280,-72,-13756,79,339,75
33135112,1280,-72,-13756,79,339,75
33139912,1308,-140,-13716,87,334,116
33144812,1288,-80,-13812,79,349,94
33241113,1324,-136,-13672,58,346,121
33245121,1324,-136,-13672,58,346,121
33250212,1464,-148,-13660,96,338,85
33343810,1308,-112,-13764,76,317,110
33345410,1400,-60,-13740,96,304,116
33350410,1352,-24,-13616,89,339,116
33355212,1352,-24,-13616,89,339,116
33360010,1340,-76,-13716,100,362,107
33364810,1380,-108,-13696,100,348,89
33369610,1380,-60,-13564,73,336,104
33374412,1324,-160,-13744,69,354,91
33380410,1416,-4,-13684,91,341,109
33385212,1416,-4,-13684,91,341,109
33390010,1424,-132,-13520,99,351,98
33394810,1340,-40,-13592,94,351,111
33399612,1312,-116,-13668,85,350,81
33404410,1392,-28,-13652,97,357,129
33410312,1380,4,-13752,85,343,104
33415110,1268,-28,-13652,112,342,116
33420010,1268,-64,-13804,75,362,85
33586112,1336,-136,-13728,92,345,103
33603012,1376,24,-13856,89,337,94
33604512,1376,24,-13856,89,337,94
33609412,1380,-44,-13784,98,338,106
33615312,1392,-84,-13676,73,363,115
33620112,1396,-20,-13532,94,354,104
33625012,1360,-32,-13756,67,351,124
33629812,1368,-124,-13612,91,336,90
33634612,1396,-44,-13572,81,336,78
33639412,1184,0,-13788,60,340,86
33645312,1392,12,-13644,79,310,98
33650112,1316,-72,-13656,87,359,94
33654912,1380,-124,-13672,78,350,95
33659712,1460,-44,-13708,104,337,104
33664612,1292,-60,-13772,102,328,94
33669412,1368,-84,-13640,72,358,96
33675312,1348,-16,-13724,91,338,81
33767510,1416,24,-13836,71,356,82
33770112,1416,24,-13836,71,356,82
33774912,1300,-108,-13676,83,340,87
33847411,1304,-8,-13640,69,312,105
33850211,1304,-8,-13640,69,312,105
33855011,1432,-172,-13644,96,347,89
33859811,1500,76,-13644,86,335,103
33864611,1320,-116,-13620,80,343,90
33869511,1464,-116,-13708,75,341,103
33875411,1388,-52,-13716,81,360,114
33880211,1456,-104,-13724,90,343,91
33885011,1316,-32,-13636,73,361,90
33889811,1352,-124,-13780,67,346,104
33894611,1320,-136,-13556,86,333,96
33899411,1364,-40,-13788,73,347,94
33905311,1324,-76,-13784,90,321,109
33910211,1208,-168,-13888,108,330,98
33915011,1316,-108,-13672,78,349,113
34005118,1316,-108,-13672,78,349,113
34017210,1416,-60,-13576,82,339,89
34019810,1416,-60,-13576,82,339,89
34024612,1408,-136,-13588,91,324,105
34029412,1340,36,-13688,85,327,101
34102110,1428,-180,-13748,110,352,96
34104710,1428,-180,-13748,110,352,96
34109512,1444,20,-13784,87,344,92
34115412,1380,-32,-13804,65,342,103
34120212,1376,-64,-13584,86,340,105
34125012,1316,-104,-13704,64,352,79
34129812,1440,-60,-13600,85,357,103
34134612,1368,-96,-13464,92,359,104
34139512,1276,-48,-13640,90,361,106
34145412,1368,-60,-13620,83,344,72
34150212,1352,-160,-13576,92,364,103
34155012,1276,-96,-13684,95,353,92
34159812,1260,-36,-13712,73,343,82
34277610,1304,-196,-13588,97,350,105
34280312,1304,-196,-13588,97,350,105
34285112,1332,-48,-13588,70,345,98
34290012,1376,-112,-13796,77,335,79
34294812,1440,0,-13688,78,353,119
34299612,1376,-12,-13660,91,336,89
34304412,1324,-96,-13648,80,343,101
34376812,1324,-64,-13688,85,338,99
34379612,1324,-64,-13688,85,338,99
34384412,1312,-24,-13736,77,341,104
34390312,1392,-96,-13788,79,344,92
34395112,1308,-120,-13748,72,341,94
34399912,1340,-160,-13656,74,356,72
34404812,1336,-120,-13592,93,327,91
34409612,1388,-200,-13736,105,354,86
34414412,1396,-172,-13612,95,329,103
34420312,1348,-140,-13668,84,354,83
34425112,1376,-8,-13572,69,343,86
34527710,1408,-12,-13668,89,362,82
34530512,1408,-12,-13668,89,362,82
34535312,1352,-192,-13580,84,324,97
34540112,1316,-136,-13712,77,329,84
34544912,1348,-268,-13760,80,351,103
34549712,1440,-52,-13564,98,361,95
34554512,1412,-108,-13692,94,337,78
34560412,1392,-132,-13988,84,343,82
34565212,1396,-212,-13604,81,361,108
34637612,1392,-48,-13684,73,338,91
34640212,1392,-48,-13684,73,338,91
34645112,1368,-192,-13776,70,358,103
34649912,1352,-88,-13672,77,335,87
34654712,1332,-124,-13904,104,305,114
34659512,1368,-136,-13608,66,353,98
34665412,1388,-96,-13668,83,387,114
34670212,1404,8,-13688,71,353,106
34675012,1472,-80,-13752,101,360,118
34764912,1472,-80,-13752,101,360,118
34769912,1428,-68,-13664,99,332,104
34774712,1320,-88,-13716,86,347,93
34779512,1324,-72,-13776,84,362,108
34785412,1364,-180,-13812,79,340,77
34790212,1440,-112,-13652,73,347,104
34795012,1216,-140,-13856,55,318,121
34799812,1224,-128,-13704,93,346,89
34804712,1308,-128,-13828,64,320,100
34809512,1324,-172,-13760,67,360,96
34815412,1396,-96,-13664,111,331,94
34888412,1288,-48,-13668,105,357,93
34890012,1288,-48,-13668,105,357,93
34894812,1428,0,-13740,53,353,106
34899612,1340,20,-13684,97,344,97
34904412,1496,-8,-13664,68,328,93
34910312,1372,-28,-13696,91,367,99
35002913,1316,-176,-13744,95,343,97
35016412,1400,-180,-13656,67,363,94
35020112,1400,-180,-13656,67,363,94
35024912,1444,-104,-13376,93,354,99
35029712,1588,-92,-13932,87,351,113
35034512,1520,-48,-13720,81,342,96
35040412,1292,12,-13528,119,316,92
35045212,1432,-60,-13716,70,370,103
35050012,1428,-96,-13612,62,352,92
35054912,1308,-8,-13744,112,326,91
35059712,1156,36,-13724,92,319,96
35064512,1328,24,-13648,67,379,80
35070412,1408,12,-13728,59,374,89
35075212,1360,44,-13784,115,313,83
35146412,1304,-168,-13792,96,357,105
35150512,1304,-168,-13792,96,357,105
35155312,1296,-248,-13832,92,337,104
35160112,1308,-220,-13840,100,323,105
35251210,1380,-40,-13720,87,323,106
35275410,1340,4,-13728,107,342,79
35280470,1508,-124,-13648,87,331,90
35285310,1448,-216,-13712,85,353,85
35290110,1364,-124,-13576,80,324,93
35294912,1344,-124,-13632,87,357,85
35299712,1364,-260,-13656,73,333,83
35304512,1376,-176,-13768,103,349,100
35309412,1264,-40,-13596,89,360,91
35315312,1300,-248,-13596,73,334,107
35320112,1340,-184,-13896,85,362,99
35324912,1400,-296,-13644,86,342,96
35329712,1292,-108,-13648,109,344,94
35334512,1420,-180,-13728,95,345,96
35340412,1392,-152,-13516,76,343,104
35345212,1352,-100,-13716,69,346,111
35418712,1412,-76,-13760,80,356,96
35420312,1412,-76,-13760,80,356,96
35512312,1380,-52,-13752,104,351,105
35525612,1424,-16,-13708,88,354,82
35530412,1380,16,-13680,85,330,104
35535212,1484,40,-13716,88,326,81
35540012,1424,0,-13624,93,354,95
35544812,1408,-116,-13648,72,339,114
35549712,1312,-84,-13664,87,342,127
35554512,1428,-4,-13628,76,331,116
35560412,1432,76,-13832,83,354,117
35565212,1392,16,-13772,92,347,102
35570012,1448,36,-13764,91,332,129
35574812,1468,32,-13652,83,332,114
35579612,1376,40,-13760,80,371,110
35584412,1364,20,-13748,91,381,77
35590412,1296,0,-13772,109,360,120
35595212,1364,-80,-13732,102,314,81
35600012,1324,-76,-13824,77,333,112
35690010,1324,-76,-13824,77,333,112
35764712,1468,-68,-13688,64,376,90
35769812,1376,-64,-13764,76,342,104
35774612,1420,-64,-13848,81,336,93
35779412,1344,-168,-13772,85,336,94
35785312,1404,-140,-13672,88,357,91
35790112,1432,-136,-13756,87,346,115
35794912,1360,-108,-13688,109,320,137
35799812,1460,-132,-13772,100,341,118
35804612,1388,-244,-13564,74,356,88
35809412,1320,8,-13592,93,329,109
35815312,1424,-160,-13800,95,315,117
35820112,1416,-116,-13704,73,351,120
35824912,1316,-68,-13704,57,363,123
35829712,1320,-156,-13696,89,331,97
35834512,1272,-20,-13800,79,358,105
35839412,1296,-88,-13772,88,343,129
35929210,1296,-88,-13772,88,343,129
35942812,1308,-92,-13744,90,332,78
35945512,1308,-92,-13744,90,332,78
35950312,1280,-104,-13736,78,345,96
36023310,1400,-76,-13628,66,348,117
36024910,1400,-76,-13628,66,348,117
36029912,1380,-64,-13752,84,363,114
36034712,1420,-88,-13764,81,331,127
36039512,1284,-108,-13692,70,336,123
36044412,1372,60,-13668,95,344,118
36050312,1336,-112,-13736,85,369,116
36055112,1324,-136,-13644,86,357,90
36059912,1312,-164,-13600,93,339,101
36064712,1328,4,-13688,66,342,90
36069512,1520,-64,-13560,98,348,96
36075412,1392,52,-13600,78,340,107
36080212,1432,-80,-13652,76,316,93
36085112,1384,-44,-13744,86,330,95
36089912,1304,-140,-13892,80,336,110
36180213,1304,-140,-13892,80,336,110
36185111,1344,-64,-13844,106,343,108
36189911,1476,-64,-13820,82,348,115
36194711,1320,-144,-13644,88,340,81
36199611,1348,-136,-13704,87,347,78
36296412,1336,60,-13784,83,358,112
36300312,1328,-44,-13716,84,347,105
36305112,1324,-116,-13644,85,328,78
36309912,1368,-180,-13936,102,344,92
36314712,1396,44,-13776,68,350,95
36319512,1368,-28,-13604,82,341,74
36325412,1324,-44,-13784,76,343,97
36330212,1384,-100,-13744,96,339,96
36335112,1384,-104,-13756,63,353,92
36339912,1388,-96,-13736,76,303,84
36344712,1452,-24,-13676,73,342,94
36349512,1384,-120,-13816,103,348,82
36442110,1420,-8,-13716,100,354,121
36455512,1348,-68,-13764,82,327,91
36460412,1416,36,-13648,90,314,86
36465312,1388,-24,-13780,60,337,94
36470112,1464,52,-13832,107,343,89
36474912,1304,-8,-13668,95,332,91
36479712,1460,-52,-13740,78,352,84
36484512,1404,-40,-13632,63,333,88
36556012,1300,-176,-13640,98,357,105
36559712,1352,-56,-13728,72,329,86
36564512,1300,-132,-13580,97,336,96
36570412,1468,-56,-13680,96,350,101
36575212,1448,-28,-13688,69,325,89
36580012,1392,24,-13548,95,342,92
36584812,1396,32,-13776,98,341,87
36589712,1284,76,-13760,105,346,91
36594512,1452,84,-13664,89,342,89
36600412,1364,-80,-13660,83,353,101
36690410,1364,-80,-13660,83,353,101
36695412,1324,-148,-13660,100,342,65
36700212,1364,-44,-13580,79,353,85
36705112,1420,-180,-13796,73,339,99
36709912,1328,-164,-13772,65,350,103
36714712,1320,-112,-13688,106,343,92
36719512,1292,-156,-13844,92,343,89
36725412,1444,-52,-13608,77,351,104
36730212,1260,-56,-13612,82,347,103
36735112,1460,-40,-13588,93,339,117
36807312,1448,-164,-13796,86,331,90
36810112,1448,-164,-13796,86,331,90
36814912,1368,-124,-13748,92,334,87
36819712,1352,-128,-13672,92,329,96
36824512,1336,-68,-13696,76,353,120
36830412,1412,-172,-13652,67,356,106
36835312,1420,-212,-13852,85,345,104
36927612,1416,-32,-13664,71,338,101
36941110,1412,-96,-13520,82,351,118
36944910,1344,-28,-13612,73,345,95
36949712,1364,-60,-13804,121,303,113
36954512,1448,60,-13732,132,359,116
36960412,1384,-40,-13656,77,287,122
36965312,1196,36,-13512,114,276,102
36970112,1372,-12,-13792,76,340,113
36974912,1296,-92,-13664,88,368,107
36979712,1460,40,-13660,85,317,115
36984512,1364,-8,-13668,91,334,113
36990412,1444,-4,-13660,64,357,101
36995212,1344,168,-13588,115,329,91
37067810,1368,-100,-13724,81,324,114
37070410,1368,-100,-13724,81,324,114
37075212,1372,-224,-13764,100,348,106
37080012,1296,-152,-13728,69,357,107
37084812,1268,-128,-13672,79,337,101
37177010,1328,-92,-13744,113,316,91
37179610,1396,-72,-13844,68,327,91
37184412,1468,40,-13736,64,358,110
37190312,1324,-136,-13624,68,341,111
37195112,1412,-48,-13696,96,292,111
37200012,1388,-120,-13620,73,332,122
37204812,1520,-36,-13824,93,330,122
37209612,1396,-72,-13808,84,330,113
37214412,1364,-12,-13636,62,351,103
37220312,1312,8,-13712,109,348,122
37225112,1332,-4,-13572,85,342,108
37229912,1344,-192,-13772,76,341,100
37234712,1304,-160,-13720,70,313,80
37239612,1288,-76,-13608,74,328,104
37244412,1216,-120,-13732,68,342,85
37341612,1392,4,-13692,71,335,115
37345412,1416,-56,-13756,78,363,101
37439110,1300,-40,-13840,87,338,100
37452512,1432,84,-13756,80,347,114
37455112,1432,84,-13756,80,347,114
37459912,1336,-88,-13552,69,336,110
37464712,1364,-60,-13768,94,331,97
37469512,1384,-84,-13768,72,345,112
37474412,1428,-112,-13604,84,335,100
37480312,1332,-88,-13748,97,350,99
37485112,1300,-12,-13772,75,337,92
37489912,1324,8,-13644,109,327,95
37494712,1332,-56,-13752,73,345,100
37499512,1272,-84,-13680,58,318,100
37505412,1372,-60,-13700,87,351,95
37510212,1392,-144,-13716,80,368,127
37515112,1364,-92,-13760,80,344,100
37519912,1328,-68,-13760,70,367,111
37524712,1396,-48,-13624,75,338,102
37616610,1400,-156,-13708,83,347,118
37691410,1348,-120,-13632,81,343,104
37695110,1356,-180,-13696,85,347,92
37699912,1288,-208,-13860,64,324,82
37704712,1356,-164,-13700,104,330,87
37709512,1444,-136,-13696,90,339,105
37715412,1420,-220,-13724,79,360,99
37720212,1400,-156,-13676,67,339,111
37725012,1296,-56,-13644,100,343,106
37729912,1372,-92,-13756,73,339,116
37734712,1384,-148,-13676,84,337,101
37739512,1304,-180,-13748,81,339,106
37745412,1328,-132,-13724,91,317,110
37750212,1388,-104,-13572,81,329,116
37755012,1376,28,-13824,52,340,98
37759812,1380,-4,-13792,97,343,105
37764612,1280,-80,-13704,86,336,113
37855510,1296,-44,-13828,80,336,107
37860410,1300,-112,-13856,81,327,122
37865312,1260,-152,-13724,85,344,110
37870112,1312,-48,-13792,76,348,85
37943511,1388,-108,-13556,80,342,95
37956821,1288,-60,-13608,83,344,120
37959513,1356,-136,-13712,54,352,96
37964612,1328,-140,-13844,84,331,120
37969772,1336,-80,-13672,76,367,120
37974912,1440,-60,-13680,69,339,118
37980012,1368,40,-13616,66,342,126
37985171,1452,-108,-13696,89,363,110
37990312,1420,8,-13600,63,352,87
37995412,1372,-116,-13748,83,352,100
38000572,1288,12,-13768,59,338,85
38004512,1448,60,-13748,82,327,80
38009712,1316,60,-13688,85,344,81
38014872,1304,-16,-13720,90,339,56
38020012,1316,8,-13748,97,330,138
38110110,1316,8,-13748,97,330,138
38115110,1180,-20,-13748,91,351,98
38119910,1268,52,-13672,51,332,96
38124710,1204,36,-13660,73,348,105
38129510,1324,-32,-13820,68,345,97
38200712,1300,-144,-13616,98,336,114
38204612,1400,-40,-13668,100,326,104
38209412,1288,-160,-13732,131,333,122
38215312,1336,-148,-13620,89,330,99
38220112,1348,-16,-13676,59,316,112
38224912,1284,-96,-13716,96,325,95
38229712,1336,-164,-13620,93,321,88
38234512,1432,-160,-13748,94,336,78
38240412,1332,-148,-13736,84,329,114
38245312,1328,-32,-13620,99,338,107
38250112,1380,-156,-13840,76,357,99
38254912,1400,-32,-13728,81,370,104
38370010,1388,-152,-13644,84,314,102
38375012,1380,-68,-13792,97,358,87
38379812,1348,-96,-13508,100,358,88
38384612,1312,-144,-13860,103,378,82
38389512,1384,-116,-13820,69,345,93
38395412,1316,-164,-13620,87,365,129
38400212,1316,-152,-13860,68,353,88
38405012,1344,-136,-13712,97,353,96
38478410,1440,20,-13640,69,344,113
38495412,1320,-108,-13648,87,327,100
38500212,1224,4,-13684,77,321,111
38505012,1308,40,-13732,95,341,111
38509812,1280,-72,-13672,65,346,100
38514612,1344,-164,-13772,68,361,96
38519412,1448,-124,-13652,79,346,119
38525312,1372,-104,-13620,89,349,105
38530112,1360,-160,-13640,97,346,89
38623410,1428,-16,-13544,94,313,106
38625012,1428,-16,-13544,94,313,106
38629812,1304,-68,-13804,93,349,112
38634612,1444,-60,-13660,87,358,129
38639412,1356,-64,-13584,100,316,81
38645312,1372,-48,-13592,101,328,109
38650112,1324,-144,-13672,103,325,88
38655012,1400,-88,-13720,62,345,98
38659812,1320,-56,-13656,103,322,101
38664612,1432,-4,-13780,89,357,106
38669412,1388,-80,-13752,106,337,83
38742110,1428,-112,-13728,55,359,99
38744710,1384,-40,-13680,90,366,111
38749512,1396,52,-13752,103,348,119
38755412,1368,-68,-13596,73,336,111
38760212,1476,-60,-13684,98,356,99
38765012,1444,-76,-13648,76,365,99
38769812,1364,-24,-13784,64,344,110
38861011,1388,-116,-13660,80,360,105
38864911,1344,-44,-13736,85,357,102
38869811,1508,-128,-13736,101,354,97
38874611,1304,-36,-13640,71,352,109
38879411,1424,-168,-13632,87,343,77
38885311,1364,-200,-13740,67,335,94
38890111,1308,-136,-13776,90,367,97
38894911,1356,4,-13620,87,347,97
38899711,1364,-168,-13768,90,352,120
38904511,1320,-252,-13656,87,358,110
38909411,1316,-152,-13684,95,346,73
38915311,1372,-56,-13616,82,326,82
38920111,1336,-32,-13668,93,314,114
38992812,1344,-68,-13580,82,339,97
39005110,1324,-76,-13756,92,337,109
39009910,1368,-72,-13728,103,323,114
39014812,1380,-12,-13828,99,334,111
39019612,1356,12,-13700,124,321,127
39109512,1356,12,-13700,124,321,127
39114512,1440,-24,-13584,87,331,100
39119412,1332,-80,-13788,68,366,108
39125312,1384,-72,-13644,96,324,123
39130112,1396,-32,-13660,94,340,123
39134912,1360,-20,-13684,87,341,117
39139712,1336,-16,-13500,93,359,106
39144512,1452,-160,-13812,87,361,115
39149412,1348,-92,-13708,87,364,110
39155312,1388,-100,-13704,98,343,111
39160112,1304,-68,-13804,71,338,88
39164912,1368,28,-13624,53,344,63
39169712,1372,-84,-13796,91,335,79
39174512,1428,-16,-13700,87,351,84
39180412,1380,40,-13516,69,319,91
39252710,1172,-60,-13620,61,328,110
39255310,1408,-180,-13684,72,318,104
39370812,1320,-116,-13708,103,343,94
39374612,1460,-88,-13576,94,355,102
39379512,1356,-116,-13616,112,320,98
39385412,1316,-208,-13752,48,347,61
39390212,1356,-188,-13668,90,340,91
39395012,1356,-148,-13732,108,366,75
39399812,1352,-172,-13740,100,337,61
39404612,1340,-136,-13692,124,317,70
39409412,1356,-88,-13832,93,339,70
39415312,1360,-112,-13832,67,344,84
39420212,1416,-156,-13792,115,342,97
39425012,1316,-196,-13692,78,339,97
39434812,1372,12,-13820,84,319,93
39439612,1352,-160,-13852,89,337,95
39444412,1324,-72,-13652,94,317,122
39450312,1380,8,-13660,55,329,116
39455112,1420,-132,-13696,93,340,85
39544512,1432,-112,-13688,84,329,92
39619612,1244,-16,-13836,92,341,75
39624612,1432,-132,-13736,81,363,85
39629412,1356,-40,-13636,102,316,77
39635312,1324,-156,-13696,68,336,108
39640112,1312,-112,-13700,73,362,78
39645012,1396,-164,-13872,76,370,75
39649812,1432,-84,-13756,76,339,98
39654612,1368,-36,-13684,92,329,93
39659412,1336,-64,-13632,69,342,100
39665312,1524,-96,-13712,99,361,93
39670112,1396,-104,-13692,108,336,91
39674912,1352,-56,-13756,96,353,107
39679712,1324,-80,-13708,75,376,124
39684612,1296,92,-13760,72,344,122
39689412,1316,-32,-13636,77,350,110
39783910,1424,-136,-13608,113,373,92
39785410,1424,-136,-13608,113,373,92
39790312,1420,-248,-13820,42,346,100
39795112,1284,-228,-13652,81,312,112
39800012,1400,-68,-13564,91,341,122
39872912,1332,-96,-13844,74,324,87
39874512,1280,-72,-13796,80,345,109
39880412,1372,-132,-13708,79,323,83
39885212,1300,-116,-13504,80,345,118
39890012,1416,-64,-13596,61,338,90
39894912,1324,-180,-13852,91,343,108
39899712,1324,-260,-13776,73,343,102
39904512,1468,-132,-13652,82,350,97
39910412,1432,-96,-13672,62,345,98
39915212,1364,-92,-13684,82,347,114
39920012,1308,-140,-13792,76,355,111
39924812,1356,-144,-13572,77,350,113
39934712,1336,-176,-13740,87,347,109
39939612,1332,-124,-13636,78,356,92
40030910,1428,-108,-13760,91,345,90
40034712,1328,-60,-13576,70,356,85
40039512,1380,-92,-13732,84,340,99
40045412,1428,-156,-13676,78,315,97
40050312,1408,-72,-13664,100,329,113
40055112,1272,12,-13704,95,354,113
40127812,1380,-64,-13728,81,349,96
40129412,1340,-68,-13852,104,329,99
40135312,1432,-108,-13676,80,323,94
40140112,1344,-112,-13612,84,340,90
40145012,1296,20,-13660,77,366,93
40149812,1404,-100,-13780,59,360,88
40154612,1344,32,-13788,77,323,118
40159412,1400,-44,-13760,82,365,100
40165312,1384,-132,-13764,75,357,135
40170112,1296,-116,-13740,64,362,108
40174912,1308,-84,-13684,66,342,97
40267712,1480,-160,-13660,84,330,90
40270513,1328,-156,-13564,86,336,104
40275312,1292,-88,-13548,106,359,123
40280112,1396,-92,-13612,97,343,105
40284912,1332,-104,-13524,77,338,94
40289712,1420,-8,-13760,67,336,89
40294512,1432,-172,-13608,93,349,102
40300412,1364,16,-13792,82,352,66
40305212,1460,4,-13636,76,334,80
40404812,1308,-144,-13708,83,327,104
40409812,1292,-96,-13660,99,340,101
40414612,1276,-72,-13740,73,339,112
40419412,1424,-172,-13576,81,350,95
40425312,1340,-100,-13704,83,354,112
40435212,1440,-116,-13516,71,339,105
40440112,1372,-48,-13616,92,339,115
40444912,1384,-84,-13696,67,341,82
40449812,1384,-100,-13672,75,338,85
40540610,1384,-140,-13712,81,361,92
40545410,1320,-172,-13724,84,342,117
40550312,1420,-52,-13744,66,357,100
40555112,1364,-16,-13728,86,343,79
40559912,1372,-92,-13676,81,328,89
40564712,1304,-216,-13648,94,337,90
40569512,1372,-44,-13644,80,357,105
40575412,1432,-80,-13740,84,387,101
40580212,1364,-80,-13612,94,361,89
40585012,1408,72,-13704,99,318,99
40589912,1320,-84,-13564,77,355,111
40662610,1436,-128,-13692,81,324,103
40665410,1404,-148,-13840,84,337,108
40670212,1364,-104,-13796,83,333,85
40675012,1272,-128,-13640,91,338,86
40679812,1468,-124,-13668,90,335,100
40684712,1360,-228,-13764,79,329,109
40778216,1328,-124,-13680,88,321,108
40779815,1264,36,-13776,70,316,85
40784712,1364,0,-13772,88,307,96
40789512,1392,-52,-13756,59,348,98
40795412,1424,-108,-13696,89,348,99
40800312,1316,-200,-13548,97,323,100
40805112,1400,-112,-13696,86,342,99
40809912,1336,-156,-13620,77,327,93
40814712,1372,-96,-13636,72,338,97
40819512,1460,-152,-13720,91,355,119
40825412,1292,-56,-13648,74,326,93
40830212,1348,-192,-13708,72,332,98
40835012,1380,-180,-13688,73,336,104
40839912,1324,-88,-13756,92,336,94
40912613,1452,-100,-13620,76,345,108
40915412,1380,-12,-13728,94,346,82
40920212,1336,-76,-13848,79,313,81
40925012,1364,-196,-13572,97,398,100
40945612,1412,-128,-13744,92,336,75
41038619,1412,-128,-13744,92,336,75
41040222,1448,-96,-13572,91,337,98
41045012,1368,-48,-13712,74,344,78
41049812,1424,-104,-13736,85,340,99
41054612,1452,-100,-13688,94,332,97
41059412,1336,-104,-13644,70,340,95
41065312,1300,-56,-13620,91,306,95
41070212,1404,-116,-13688,79,347,123
41075012,1424,-140,-13764,72,353,118
41079812,1372,-76,-13856,85,331,98
41084612,1320,-168,-13708,116,352,93
41089412,1432,-112,-13632,87,350,99
41095312,1412,-84,-13796,73,337,110
41100112,1384,-108,-13700,59,328,110
41104912,1264,-36,-13612,76,348,105
41182270,1312,-108,-13616,59,362,97
41184910,1372,-192,-13712,83,337,97
41189710,1364,-4,-13716,92,327,110
41280710,1388,-48,-13620,71,344,85
41284510,1380,-180,-13756,62,353,74
41289412,1304,-88,-13688,74,340,86
41295312,1360,-84,-13588,78,341,98
41300112,1380,-60,-13752,65,363,110
41304912,1372,-164,-13768,106,338,92
41309712,1388,-92,-13696,102,346,101
41314512,1328,40,-13628,91,343,89
41320412,1344,-88,-13832,80,347,110
41325212,1460,-88,-13736,110,342,92
41330112,1460,-56,-13856,84,338,110
41334912,1300,-100,-13664,57,347,117
41339712,1380,-68,-13768,76,355,94
41344512,1420,-112,-13800,83,334,105
41350412,1288,-144,-13684,81,316,100
41355212,1432,-124,-13532,83,349,101
41470212,1384,-172,-13624,99,337,139
41560612,1380,-152,-13648,75,344,108
41564612,1372,-112,-13852,73,353,82
41569412,1316,-136,-13572,94,358,115
41575312,1412,-180,-13660,90,339,89
41580112,1396,-216,-13800,86,356,93
41584912,1340,-124,-13840,58,357,87
41589712,1408,-8,-13880,85,328,88
41594612,1392,-8,-13948,91,332,108
41599412,1360,-68,-13768,100,350,118
41605312,1352,-124,-13628,56,344,95
41610112,1380,-124,-13660,65,317,86
41614912,1380,-128,-13644,70,322,113
41619712,1412,-92,-13772,80,339,120
41624512,1412,-120,-13768,62,357,88
41630412,1416,-128,-13752,79,330,86
41635312,1316,-68,-13724,72,330,92
41725312,1324,-4,-13688,89,359,105
41730212,1384,-188,-13752,90,341,88
41735012,1364,-68,-13692,90,358,94
41739912,1340,-84,-13684,70,329,91
41812412,1460,-100,-13624,84,341,114
41815212,1372,-56,-13580,77,320,111
41820012,1336,-128,-13700,68,323,106
41824812,1368,-40,-13720,79,322,98
41829612,1400,-88,-13672,94,358,97
41834412,1316,-136,-13676,85,343,96
41840312,1424,-24,-13584,95,320,94
41845112,1248,-132,-13708,105,324,103
41850012,1320,-128,-13488,102,355,127
41854812,1252,-96,-13716,98,349,77
41859612,1344,-48,-13680,68,359,108
41864412,1348,-92,-13844,65,326,98
41870312,1268,64,-13724,85,327,95
41963610,1304,-104,-13656,99,339,86
41987912,1440,-68,-13740,73,357,103
41989412,1380,-40,-13716,87,334,102
41995412,1352,-96,-13748,95,335,115
42000212,1376,-92,-13608,91,356,105
42005012,1368,-148,-13804,81,330,103
42009912,1276,-116,-13620,92,340,85
42082712,1440,16,-13764,90,345,103
42085512,1404,-88,-13792,90,361,85
42090412,1332,-16,-13732,74,362,103
42095212,1360,0,-13704,85,328,90
42100012,1324,-68,-13656,89,317,93
42104812,1344,-80,-13680,82,355,105
42109612,1428,-100,-13784,90,363,110
42114412,1428,-100,-13784,90,363,110
42120312,1476,-76,-13776,91,329,117
42125112,1332,-124,-13492,77,366,95
42130012,1332,-108,-13764,64,333,103
42134812,1400,-76,-13688,82,349,94
42224912,1360,-80,-13724,66,351,93
42230012,1316,-32,-13660,73,336,98
42234812,1356,-88,-13672,77,325,98
42239612,1336,-108,-13588,82,337,88
42244412,1336,-108,-13588,82,337,88
42250312,1396,-148,-13880,91,331,93
42255112,1332,-112,-13676,77,346,106
42260012,1376,8,-13820,84,347,89
42331812,1336,-60,-13720,75,345,94
42334412,1336,-60,-13720,75,345,94
42340312,1364,-28,-13680,98,336,115
42345112,1400,-92,-13720,68,373,106
42349912,1408,-128,-13520,78,332,118
42354812,1484,4,-13768,87,340,110
42359612,1332,-136,-13516,112,351,70
42364412,1332,-136,-13516,112,351,70
42370312,1400,-84,-13644,83,353,69
42485712,1364,-92,-13768,66,335,89
42500210,1420,-76,-13668,79,316,98
42505010,1348,-72,-13644,91,349,82
42509912,1400,-140,-13692,73,345,83
42514712,1400,-104,-13612,101,340,85
42519512,1400,-104,-13612,101,340,85
42525412,1376,-56,-13740,94,327,100
42530212,1292,-124,-13820,102,343,95
42535012,1416,28,-13680,90,338,116
42539912,1416,-16,-13772,79,319,85
42544712,1324,-64,-13664,114,323,102
42617210,1320,-136,-13760,104,359,98
42619810,1328,-96,-13796,85,334,97
42624712,1260,-96,-13840,90,358,75
42629512,1260,-96,-13840,90,358,75
42635412,1352,-32,-13704,56,345,88
42640212,1316,-164,-13812,93,338,90
42645012,1324,-100,-13608,100,318,71
42736110,1332,-80,-13704,73,341,87
42739810,1360,8,-13584,76,343,95
42744612,1360,8,-13584,76,343,95
42749412,1412,-32,-13736,73,323,99
42755312,1388,-88,-13712,92,345,103
42760212,1420,72,-13708,89,372,80
42765012,1324,-4,-13704,96,323,112
42769812,1308,-112,-13620,87,349,91
42774612,1308,-112,-13620,87,349,91
42779412,1400,-104,-13776,98,329,67
42785312,1288,-116,-13784,74,364,110
42790112,1352,-152,-13800,97,312,99
42794912,1304,-60,-13604,91,323,104
42866710,1372,-80,-13628,77,359,99
42869410,1372,-80,-13628,77,359,99
42875310,1316,-120,-13692,65,344,63
42880212,1452,-36,-13684,79,346,88
42972512,1340,-56,-13688,82,353,97
42996810,1288,-128,-13636,57,348,106
42999410,1288,-128,-13636,57,348,106
43005310,1424,-84,-13652,75,347,101
43010212,1492,-80,-13668,55,354,84
43015012,1472,-148,-13524,77,371,86
43019812,1472,-148,-13524,77,371,86
43024612,1312,-108,-13732,73,341,105
43029412,1376,-56,-13624,92,339,106
43035312,1276,-88,-13852,86,354,121
43040112,1468,-8,-13616,62,351,119
43044912,1364,-204,-13764,69,351,116
43049812,1364,-204,-13764,69,351,116
43054612,1208,-136,-13712,76,348,113
43059412,1328,-96,-13652,75,364,111
43065312,1300,-160,-13584,88,323,114
43138010,1336,-56,-13648,86,342,81
43139510,1336,-56,-13648,86,342,81
43232910,1260,-100,-13508,91,339,79
43234410,1260,-100,-13508,91,339,79
43240412,1404,-180,-13680,60,362,100
43245212,1368,-144,-13672,82,332,84
43250112,1380,-144,-13688,82,341,84
43254912,1380,-144,-13688,82,341,84
43259712,1432,-164,-13772,82,339,72
43264512,1368,-196,-13768,82,343,96
43270412,1380,-132,-13636,87,343,101
43275212,1360,-144,-13800,71,344,96
43280112,1384,-116,-13680,94,340,105
43284912,1384,-116,-13680,94,340,105
43289712,1348,-156,-13704,85,347,116
43294512,1432,-136,-13824,81,332,105
43300412,1364,-344,-13780,93,328,111
43305212,1320,-84,-13780,78,347,98
43398812,1384,-92,-13728,97,355,99
43400412,1328,-136,-13752,82,366,92
43498412,1448,-164,-13628,63,346,95
43513112,1348,-64,-13688,82,348,122
43514712,1348,-64,-13688,82,348,122
43519612,1444,28,-13728,57,346,106
43524412,1268,-144,-13772,66,344,110
43530312,1376,-112,-13632,85,331,84
43535112,1468,-72,-13656,96,340,98
43540012,1468,-72,-13656,96,340,98
43544812,1368,96,-13736,63,344,99
43549612,1324,8,-13736,78,357,103
43554412,1436,40,-13748,74,349,80
43560312,1344,-68,-13776,68,344,87
43565112,1344,-68,-13776,68,344,87
43569912,1412,-12,-13824,68,328,91
43574712,1388,-44,-13560,72,338,80
43579612,1296,-92,-13748,81,371,106
43584412,1360,-12,-13812,88,348,93
43674410,1396,-132,-13708,75,352,100
43679410,1380,-48,-13620,99,327,96
43685412,1284,-20,-13804,70,362,91
43757010,1392,-148,-13580,73,323,87
43759810,1392,-148,-13580,73,323,87
43764611,1316,-92,-13704,89,332,107
43769411,1396,-116,-13704,86,336,94
43775311,1332,-64,-13692,81,351,87
43780211,1332,-64,-13692,81,351,87
43785011,1300,-132,-13572,102,365,83
43789811,1276,-52,-13828,68,341,65
43794611,1356,24,-13628,105,342,107
43799411,1312,-144,-13796,79,333,86
43805311,1400,-108,-13772,81,339,84
43810111,1400,-108,-13772,81,339,84
43814911,1448,-68,-13672,81,346,101
43819811,1468,-72,-13552,67,333,108
43911113,1432,-112,-13676,80,329,97
43915012,1432,-112,-13676,80,329,97
43919812,1420,-148,-13708,85,340,96
43924612,1344,-136,-13524,92,316,82
43945211,1308,-92,-13768,73,357,98
43950111,1448,-92,-13712,64,351,115
44022610,1344,-96,-13760,90,344,94
44025210,1344,-96,-13760,90,344,94
44030012,1392,-68,-13700,86,341,103
44034812,1412,-16,-13728,77,349,102
44039612,1484,-40,-13700,67,359,83
44044412,1512,-92,-13680,102,336,89
44050312,1348,-44,-13652,71,323,83
44055112,1380,-40,-13744,92,330,87
44060012,1416,-96,-13772,72,333,102
44064812,1352,-76,-13660,74,327,91
44069612,1312,-52,-13720,89,343,115
44074412,1396,-16,-13508,87,357,94
44168112,1420,-140,-13772,89,347,105
44169612,1420,-140,-13772,89,347,105
44174512,1292,-32,-13740,91,340,94
44180412,1484,-76,-13472,84,334,90
44185312,1484,-76,-13472,84,334,90
44190112,1380,-44,-13744,73,352,94
44194912,1388,-112,-13728,86,344,93
44199712,1328,-56,-13716,87,351,87
44271612,1336,-108,-13720,105,352,82
44274412,1336,-108,-13720,105,352,82
44280412,1352,-44,-13736,95,343,72
44285212,1368,-68,-13612,72,357,86
44290012,1468,-120,-13808,83,339,87
44294812,1464,-52,-13820,85,338,87
44299612,1468,-120,-13608,71,333,97
44304412,1348,-96,-13676,79,350,110
44310312,1396,-92,-13720,72,358,97
44315112,1384,20,-13536,93,338,105
44405412,1384,20,-13536,93,338,105
44410312,1416,12,-13584,74,351,91
44415112,1440,-92,-13748,74,332,115
44420012,1412,-100,-13768,69,329,110
44424812,1384,-76,-13728,98,344,98
44445512,1360,-68,-13752,76,348,100
44450412,1344,12,-13688,59,360,94
44455312,1404,-68,-13828,70,338,98
44460112,1380,-80,-13756,71,356,118
44464912,1348,-108,-13744,100,339,89
44561212,1472,28,-13748,89,337,94
44565112,1472,28,-13748,89,337,94
44569912,1296,-80,-13772,73,329,113
44574712,1424,16,-13816,91,329,100
44579512,1452,-124,-13772,68,339,87
44584412,1296,-76,-13768,78,349,116
44590312,1352,-48,-13716,88,340,97
44595112,1336,-60,-13652,85,344,110
44686210,1360,8,-13692,69,344,82
44690012,1360,8,-13692,69,344,82
44694812,1312,28,-13700,84,355,82
44699712,1336,-120,-13704,79,361,97
44704512,1412,-88,-13828,93,336,105
44710412,1376,20,-13676,69,321,91
44715212,1352,-132,-13784,98,351,82
44720012,1384,-108,-13708,75,321,95
44724812,1368,-160,-13720,77,324,100
44729712,1376,-84,-13872,74,337,91
44734512,1320,-96,-13848,68,346,113
44740412,1476,28,-13712,74,348,94
44811610,1432,-40,-13784,88,330,69
44815312,1432,-40,-13784,88,330,69
44820112,1388,-72,-13524,85,336,62
44824912,1404,12,-13768,87,356,80
44829712,1360,-124,-13768,97,337,88
44921910,1280,44,-13588,77,342,111
44924618,1280,44,-13588,77,342,111
44941312,1332,-32,-13796,109,346,88
44945012,1332,-32,-13796,109,346,88
44949812,1308,-28,-13652,102,350,82
44954612,1324,-68,-13868,95,341,81
44959412,1396,-148,-13680,79,328,75
44965312,1372,-136,-13772,92,346,81
44970112,1404,-132,-13768,82,334,85
44974912,1444,-236,-13800,81,352,95
44979812,1384,-164,-13576,81,310,97
44984612,1460,-152,-13752,114,342,93
44989412,1352,-168,-13832,81,340,116
44995312,1400,-152,-13828,93,348,100
45000112,1428,-164,-13748,112,356,117
45072412,1460,-128,-13708,71,332,86
45075212,1460,-128,-13708,71,332,86
45080112,1452,-12,-13752,73,333,89
45084912,1436,-188,-13756,99,366,88
45174912,1436,-188,-13756,99,366,88
45180012,1460,-104,-13776,85,330,107
45184812,1324,-128,-13900,76,349,107
45189612,1376,-100,-13736,91,336,86
45194412,1328,-112,-13596,68,355,95
45200312,1380,-92,-13504,91,352,83
45205112,1392,-76,-13676,92,336,108
45210012,1384,-152,-13696,99,365,111
45214812,1444,-40,-13616,85,328,96
45219612,1396,-88,-13772,83,335,118
45224412,1240,-48,-13664,81,345,118
45230312,1340,20,-13876,72,333,99
45235112,1512,-12,-13692,79,345,120
45239912,1392,-112,-13636,77,345,97
45244712,1368,-36,-13664,62,343,116
45249612,1396,-192,-13732,83,361,105
45322310,1344,-176,-13688,94,331,85
45414712,1344,-176,-13688,94,331,85
45419612,1304,-68,-13676,58,349,89
45424512,1400,-84,-13700,62,373,92
45441512,1380,-116,-13736,75,358,100
45445212,1380,-116,-13736,75,358,100
45450012,1324,-48,-13732,90,324,93
45454812,1348,-64,-13612,109,316,84
45459612,1352,-160,-13736,71,349,113
45464412,1428,-124,-13880,78,363,116
45470312,1452,24,-13584,79,332,108
45475112,1248,-140,-13696,104,308,112
45480012,1420,-16,-13740,80,338,106
45484812,1288,-28,-13792,81,364,98
45489612,1368,-112,-13820,99,344,106
45494412,1432,12,-13788,87,330,99
45500312,1224,-40,-13636,72,332,84
45505112,1260,-96,-13772,81,337,90
45620212,1336,-204,-13664,98,354,112
45625212,1468,-192,-13772,33,324,119
45698113,1312,-4,-13820,85,322,94
45699712,1312,-4,-13820,85,322,94
45704512,1372,-48,-13648,111,418,107
45710412,1340,-40,-13640,39,337,86
45715212,1400,80,-13724,90,295,103
45720012,1384,-172,-13808,73,341,95
45724812,1388,-68,-13540,70,397,68
45729612,1440,40,-13608,88,314,87
45734512,1408,-112,-13696,99,339,101
45740412,1324,-112,-13616,68,348,114
45745212,1304,-80,-13672,82,318,91
45750012,1364,-20,-13664,77,345,108
45754812,1380,-32,-13676,66,334,102
45759612,1268,-96,-13824,113,326,101
45764412,1448,-92,-13716,96,366,98
45858010,1444,-16,-13896,100,360,92
45859610,1444,-16,-13896,100,360,92
45864612,1360,-192,-13504,72,364,94
45869412,1496,-84,-13708,65,319,86
45875312,1356,-44,-13772,86,329,107
45947212,1420,-100,-13808,70,347,67
45960610,1340,-36,-13548,95,337,105
45964510,1376,-148,-13844,82,336,101
45969412,1408,-164,-13652,71,334,72
45975312,1388,-60,-13696,115,339,95
45980112,1356,-172,-13760,76,351,103
45984912,1408,-76,-13688,102,335,96
45989712,1336,-128,-13712,91,332,88
45994512,1368,-144,-13564,79,381,100
46000412,1336,-92,-13716,73,339,108
46005212,1392,-60,-13836,78,336,92
46010112,1496,-72,-13728,73,339,110
46014912,1344,-80,-13700,88,330,104
46107210,1500,-124,-13796,83,342,88
46109810,1500,-124,-13796,83,342,88
46114612,1276,-148,-13672,83,359,81
46119412,1392,-104,-13616,67,340,89
46125312,1364,-76,-13768,72,334,102
46130112,1432,-188,-13680,77,345,114
46134912,1408,-84,-13688,100,322,126
46208012,1488,-68,-13660,73,353,82
46209612,1488,-68,-13660,73,353,82
46214412,1372,-96,-13572,77,336,94
46220312,1352,-136,-13668,106,324,80
46225112,1412,-108,-13692,105,357,93
46229912,1372,-164,-13672,71,349,99
46234712,1380,-32,-13644,79,336,107
46239512,1400,-56,-13684,84,335,105
46245412,1344,-108,-13696,63,364,121
46250312,1344,-196,-13500,95,349,98
46255112,1324,-160,-13732,81,354,89
46345322,1324,-160,-13732,81,354,89
46350412,1372,-128,-13704,81,338,96
46355212,1488,-124,-13744,90,343,81
46360112,1376,-104,-13812,79,347,104
46364912,1356,-20,-13640,79,325,94
46369712,1392,-56,-13596,79,334,96
46374512,1392,-220,-13544,80,337,119
46380412,1448,-108,-13764,81,351,106
46385212,1376,-112,-13780,80,334,106
46458310,1452,-32,-13796,80,356,101
46471621,1316,-104,-13568,87,345,96
46475413,1316,-104,-13568,87,345,96
46480212,1356,-136,-13640,80,355,105
46485012,1348,-52,-13616,66,328,85
46489812,1396,-84,-13620,97,347,103
46494612,1412,44,-13700,65,339,110
46499412,1456,-36,-13756,100,340,89
46505312,1356,-188,-13716,79,347,101
46619512,1352,-204,-13724,72,352,92
46624612,1440,-64,-13700,83,335,100
46629412,1344,-52,-13844,72,338,110
46635312,1344,-128,-13612,103,343,98
46640112,1376,-64,-13644,69,342,117
46644912,1384,-116,-13692,104,334,122
46649712,1384,-92,-13688,91,363,90
46654612,1372,-164,-13824,55,335,104
46659412,1408,-96,-13728,81,338,105
46665312,1352,-72,-13768,101,323,92
46670112,1352,-108,-13756,95,302,96
46742910,1344,-152,-13616,75,346,102
46744410,1344,-152,-13616,75,346,102
46750412,1332,-176,-13680,88,355,108
46755212,1344,-8,-13744,69,357,106
46760112,1484,-100,-13732,111,329,97
46764912,1392,-40,-13676,66,351,122
46855212,1332,-44,-13552,83,353,82
46860368,1304,-84,-13744,83,345,97
46865212,1352,-80,-13684,76,346,94
46870012,1356,-76,-13760,107,321,97
46874812,1292,-212,-13712,83,331,83
46879612,1376,-32,-13768,103,352,104
46884412,1480,-88,-13700,81,356,100
46890412,1440,-156,-13604,64,331,105
46895212,1448,-148,-13792,90,344,109
46900012,1444,-124,-13648,77,323,71
46904812,1340,-76,-13672,65,328,96
46909612,1388,-36,-13740,86,348,105
46914412,1180,-148,-13688,86,355,100
46920312,1400,-108,-13668,71,347,89
46993210,1408,-132,-13720,97,352,103
47010310,1424,-144,-13572,70,352,89
47015110,1432,-144,-13668,78,335,87
47108710,1388,-44,-13720,90,363,99
47110210,1388,-44,-13720,90,363,99
47115112,1320,-96,-13716,67,362,102
47119912,1396,-76,-13792,106,315,88
47124812,1416,-104,-13796,86,324,108
47129612,1356,-56,-13812,91,362,133
47134412,1272,-84,-13572,85,348,95
47140312,1364,-184,-13688,78,339,100
47145112,1376,-184,-13736,76,325,95
47149912,1452,-140,-13600,87,334,104
47154812,1336,-164,-13696,90,331,112
47159612,1272,-112,-13624,94,361,82
47164412,1308,-68,-13712,78,354,99
47170312,1380,-204,-13640,86,325,100
47175112,1420,-116,-13600,102,342,101
47179912,1424,-184,-13764,87,358,99
47184712,1412,-60,-13656,84,341,96
47350910,1404,-88,-13684,112,335,95
47354810,1320,-40,-13740,85,335,97
47359712,1396,-24,-13620,109,322,90
47364512,1292,-56,-13688,91,334,88
47370412,1404,-144,-13688,95,324,97
47375212,1340,-76,-13724,82,362,77
47380012,1368,-16,-13636,94,352,78
47384812,1320,-80,-13772,113,334,76
47389612,1344,-40,-13620,73,337,96
47394412,1352,104,-13672,86,363,88
47400412,1364,28,-13620,72,366,95
47405212,1260,-112,-13616,77,339,100
47410012,1424,-96,-13700,81,328,78
47414812,1308,0,-13732,72,342,113
47419612,1364,-172,-13808,86,354,104
47424412,1468,-100,-13704,68,330,81
47441312,1460,-128,-13760,70,358,122
47533212,1340,-60,-13632,92,348,83
47534712,1340,-60,-13632,92,348,83
47539612,1404,-32,-13616,94,387,118
47635610,1332,-100,-13700,105,321,80
47639512,1244,-100,-13616,96,353,100
47645412,1296,-24,-13732,84,373,95
47650212,1392,0,-13940,95,340,66
47655012,1288,64,-13856,93,299,71
47659812,1228,36,-13792,94,332,116
47664612,1276,80,-13832,91,330,74
47669412,1228,-4,-13572,99,339,80
47675312,1328,-100,-13484,106,332,43
47680212,1296,48,-14116,106,317,70
47685012,1436,-144,-13476,67,345,58
47689812,1452,-136,-13576,102,335,71
47694612,1600,-116,-13680,82,340,80
47699412,1548,-60,-13472,75,356,71
47793810,1516,-112,-13680,20,355,64
47795310,1516,-112,-13680,20,355,64
47800212,1440,20,-13472,78,346,78
47805012,1592,-92,-13752,125,351,80
47809912,1504,-8,-13676,68,300,90
47814712,1400,-20,-13648,95,335,87
47886312,1432,-132,-13820,68,345,91
47890368,1516,-164,-13612,95,337,87
47895212,1356,-108,-13648,107,365,96
47900012,1352,-80,-13876,98,327,81
47904812,1392,-124,-13648,84,342,87
47909612,1392,-12,-13684,78,349,80
47914412,1256,-148,-13724,104,346,95
47920412,1272,-108,-13704,88,330,122
47925212,1288,-132,-13772,99,320,85
47935012,1328,-60,-13728,83,368,88
47939969,1352,-128,-13836,80,368,103
47944812,1340,-44,-13804,53,319,96
47949612,1372,-92,-13680,91,334,83
48040010,1372,-92,-13680,91,334,83
48045012,1384,-200,-13820,86,339,85
48049812,1828,-332,-13828,95,275,104
48054712,1444,60,-12424,-233,229,80
48059512,1040,8,-12300,-315,218,87
48065412,1508,1040,-15940,309,174,89
48070212,1292,348,-18140,923,-204,144
48143112,1180,276,-13836,90,-260,114
48144712,1180,276,-13836,90,-260,114
48149512,768,-232,-12528,22,381,101
48155412,1356,76,-14268,-91,456,108
48160212,1624,140,-14120,-68,500,69
48165012,1692,16,-13948,387,96,69
48169812,1392,-268,-12952,-12,55,93
48174612,1120,-280,-13604,-70,498,54
48179512,1584,-116,-14408,118,446,80
48185412,1732,-68,-14136,82,327,34
48277710,1548,64,-13500,79,326,129
48280310,1548,64,-13500,79,326,129
48285212,1584,76,-13820,98,325,93
48290012,1396,128,-13696,94,315,99
48294812,1416,24,-13680,90,351,88
48299612,1416,-72,-13772,86,362,75
48304412,1320,0,-13700,79,353,48
48310312,1268,-36,-13896,90,377,64
48315112,1236,-56,-13808,79,347,37
48319912,1200,-160,-13792,95,317,33
48391812,1376,-12,-13624,103,359,142
48394412,1340,140,-13752,89,348,122
48400312,1264,-12,-13692,68,375,112
48405212,1200,132,-13676,58,375,104
48410012,1300,160,-13684,85,355,80
48414812,1136,96,-13788,62,320,81
48419612,1204,196,-13712,70,316,43
48424412,1172,-60,-13960,165,228,110
48527912,1288,-28,-13872,86,320,69
48529668,1288,-28,-13872,86,320,69
48534512,1276,-132,-13488,94,324,82
48540412,1540,-44,-13776,67,347,84
48545212,1528,-188,-13664,55,350,54
48550012,1324,-32,-13764,32,355,69
48554812,1424,-176,-13584,94,407,41
48559712,1524,-32,-13684,77,388,75
48564512,1448,-100,-13716,57,371,67
48570412,1456,-92,-13780,60,349,86
48575212,1284,4,-13660,74,390,87
48580012,1352,-140,-13736,95,356,84
48675810,1244,-152,-13576,74,352,71
48679712,1216,-196,-13648,92,327,56
48684512,1256,-184,-13672,81,307,76
48690412,1216,-152,-13792,46,349,77
48695212,1352,-188,-13668,82,351,90
48788912,2140,140,-11268,610,611,141
48790512,2140,140,-11268,610,611,141
48794412,2680,-804,-18112,759,-912,212
48800312,576,-4,-12272,-398,-121,42
48805112,884,132,-11864,268,1254,24
48809912,1360,-656,-15472,-290,1322,59
48814712,1916,-248,-13140,-376,528,124
48819612,1660,-16,-14352,591,-123,165
48824412,1480,-456,-14456,347,4,105
48830312,892,-672,-12280,-455,884,87
48835112,1140,-276,-12332,81,838,129
48839912,1860,-192,-16940,256,119,173
48844712,972,-196,-13480,-40,-124,133
48849512,808,-76,-11364,77,823,120
48855412,1232,-680,-13852,-84,415,118
48930012,1140,264,-12608,229,374,110
48947210,1088,-16,-12936,-84,443,75
48949810,948,100,-14308,50,354,98
48954610,1884,416,-13356,-59,84,68
49043813,-440,1756,-10820,-469,-1303,131
49045416,-440,1756,-10820,-469,-1303,131
49050311,2164,1424,-28136,1307,-32,248
49055111,308,-288,-1304,-1474,111,-14
49059911,904,88,-21168,1182,1694,248
49064711,2212,-588,-13436,284,216,172
49069611,1480,208,-11768,-265,-600,117
49074411,816,-440,-15056,188,1101,107
49080311,2016,-200,-13080,230,203,73
49085111,1744,360,-13068,-367,514,133
49089911,1652,-136,-14664,655,446,158
49094711,1632,36,-13792,-104,-129,150
49099511,1092,-20,-12704,113,615,124
49105411,1556,20,-14888,264,421,139
49110311,1352,-80,-12876,-177,337,137
49115111,1216,40,-14532,468,231,161
49190612,996,-696,-7476,820,-485,116
49194513,1060,460,-13728,77,339,86
49284812,1060,460,-13728,77,339,86
49289812,1376,32,-12772,145,448,78
49294612,1328,88,-15220,25,285,124
49299512,720,-84,-12624,24,305,79
49305412,872,-92,-14628,115,268,46
49310212,1072,-364,-13576,91,429,39
49315012,1220,-260,-13324,-64,339,31
49319812,1132,-388,-14020,73,332,49
49324612,1200,-240,-13936,186,228,49
49329512,1300,-468,-13468,57,316,41
49335412,1364,-332,-13792,30,395,55
49340212,1492,-420,-13644,85,426,77
49345012,1584,-404,-13772,135,279,106
49349812,1544,-268,-13640,115,306,104
49354612,1456,-324,-13528,86,342,116
49359412,1564,-252,-14032,83,422,140
49450612,2052,-44,-13232,239,468,134
49463010,832,-160,-10044,-563,348,76
49538410,1860,356,-14796,281,85,91
49540012,1860,356,-14796,281,85,91
49544812,1092,-168,-12808,-116,301,97
49549712,1052,280,-14140,180,440,47
49554512,1524,76,-13648,-30,662,53
49560412,1456,140,-13612,149,180,66
49565212,1200,104,-13724,152,238,93
49570012,1032,-60,-13488,-49,503,80
49574812,1324,224,-14276,117,356,81
49579712,1452,132,-13452,-48,398,66
49584512,1228,-28,-13800,111,331,68
49590412,1440,-76,-13956,37,303,95
49595212,1400,-56,-13256,29,404,99
49600012,1724,68,-14232,150,334,108
49604812,1208,-896,-12012,57,356,133
49609612,1384,340,-15904,-320,-302,56
49726912,1380,-68,-13772,75,371,126
49729612,1440,40,-13836,77,357,111
49734412,960,-52,-11684,509,267,120
49740412,1392,1064,-14192,-689,-1420,48
49813310,1424,-236,-10644,467,-130,85
49814810,1424,-236,-10644,467,-130,85
49819712,1284,56,-15288,-384,265,67
49824512,820,-408,-12060,-116,726,68
49829412,1888,660,-16732,433,119,72
49835312,1212,-248,-10988,212,391,157
49840112,1092,-80,-14964,-281,137,100
49844912,1236,-296,-13304,200,590,91
49849712,1736,-16,-13736,158,226,118
49854512,1528,-100,-13620,5,334,130
49859412,1228,-144,-13960,128,143,77
49865312,1336,-184,-13476,86,554,92
49870112,1608,-120,-13952,17,291,100
49874912,920,808,-16296,464,-1295,204
49963812,1460,-1208,-15272,2575,2424,390
49988110,1984,-444,-20888,565,1526,253
49989610,2332,-176,-11612,550,-1021,314
49994710,1164,860,-12544,-35,-43,68
49999510,532,-632,-14960,-316,697,64
50005410,1476,172,-13616,-162,1046,38
50081010,1004,-192,-13456,87,96,140
50084710,1140,-112,-14300,25,339,104
50089512,1236,-132,-13452,72,556,72
50095412,1392,-12,-13696,36,348,119
50100212,1180,-92,-13916,143,110,97
50105012,1124,-252,-13620,64,375,93
50109812,1292,-96,-13824,-29,418,76
50114612,1576,-60,-13568,64,456,65
50119512,1408,-164,-13712,116,226,68
50125412,1264,-168,-13556,78,191,100
50130212,1292,-68,-13616,64,448,91
50135012,1612,-76,-13984,41,411,71
50226912,1860,-88,-13548,299,35,86
50229713,1884,484,-14928,358,969,170
50234512,276,-1628,-6812,724,500,192
50240412,1508,-52,-20848,-634,-1349,178
50245212,1332,168,-10764,457,1107,87
50250012,1060,-372,-12176,-995,1663,10
50254912,1644,-544,-14276,580,935,233
50259712,1916,-364,-15812,767,-1182,245
50333712,1108,-160,-13168,-65,396,65
50335312,1108,-160,-13168,-65,396,65
50340112,1552,112,-14232,132,614,39
50344912,1432,32,-13928,120,236,73
50349712,1176,72,-13744,106,218,94
50354512,1116,-12,-13464,20,546,69
50360412,1364,-24,-13956,108,360,56
50365212,1452,12,-13456,119,258,87
50370012,1160,-100,-13760,60,307,87
50374912,1208,-120,-13740,109,327,78
50466112,1448,-124,-12692,243,-14,120
50479521,1324,-216,-13184,-17,406,64
50484412,1372,-304,-13284,91,424,88
50490312,1608,-340,-13988,73,315,117
50495112,1380,-232,-13992,91,280,91
50499912,1144,-284,-13620,88,452,96
50504712,1272,-300,-13836,10,462,111
50509512,1324,-140,-13744,85,310,111
50515412,1224,-180,-13680,80,318,120
50520312,1288,-264,-13848,77,416,109
50593610,1268,12,-13752,-88,370,71
50595212,1268,12,-13752,-88,370,71
50600012,1144,-164,-12968,-117,766,73
50604812,1828,360,-13652,-3,564,114
50609612,1584,160,-16572,402,730,158
50614412,972,-572,-10156,418,133,134
50620312,1160,-480,-14540,-539,697,63
50625112,1300,-452,-13272,272,850,113
50740612,1316,68,-13768,2,421,97
50744513,1448,-16,-13580,81,413,113
50749412,1576,56,-13580,69,283,115
50755312,1524,24,-13632,103,311,126
50760112,1488,-24,-13928,37,394,114
50764912,1624,-704,-12220,263,174,141
50769712,1556,268,-15008,-188,-420,98
50774512,1264,592,-14164,-97,712,120
50780412,1652,-192,-12588,605,435,132
50785212,1484,204,-14176,-368,-132,117
50790112,1076,0,-13412,209,526,118
50794912,1776,52,-14192,98,275,81
50868412,760,-344,-11876,-354,396,130
50869912,1244,-144,-12876,-75,739,145
50874812,2088,116,-16632,258,-60,173
50879612,1568,28,-12096,383,-76,157
50884412,1072,-328,-13092,54,623,150
50978910,1568,-56,-13496,59,433,151
50992112,1304,-128,-13580,159,255,165
50994712,948,-136,-13896,101,344,158
50999612,1716,608,-16196,32,697,162
51004412,600,-1108,-7500,318,470,160
51010312,1844,768,-20932,164,-636,183
51015112,252,-504,-9404,-417,680,72
51019912,1688,1056,-14152,759,650,150
51024712,1452,-708,-15596,-619,220,99
51029512,1232,620,-11988,478,-33,59
51035412,1332,-8,-13268,176,768,54
51040312,1712,-140,-15144,-145,-33,51
51045112,1164,44,-12964,173,494,25
51049912,1568,-220,-13468,84,367,28
51054712,1840,-76,-14176,181,333,72
51128912,1524,-320,-14072,53,339,96
51130512,1524,-320,-14072,53,339,96
51135312,1076,68,-12776,31,99,61
51140212,1632,124,-13188,123,442,222
51230210,1632,124,-13188,123,442,222
51235212,1664,40,-13660,-74,368,191
51240012,1256,68,-13920,165,309,154
51244812,1312,-128,-13144,94,475,153
51249612,1152,8,-14100,66,356,127
51254412,1080,-148,-13448,119,324,68
51260312,1016,-268,-14048,42,378,66
51265112,800,-244,-13628,98,345,36
51269912,928,-308,-13688,86,371,3
51274812,980,-432,-13992,72,329,8
51279612,1008,-460,-13892,38,239,-27
51284412,952,-476,-13848,114,351,-49
51290312,1252,-372,-13580,87,54,-16
51295112,1696,-1204,-16452,358,791,85
51299912,1140,-1528,-7568,852,231,122
51304712,1256,-976,-21472,-318,-332,115
51377810,1668,-528,-16360,251,-214,302
51470312,1232,-192,-13320,430,-86,236
51483912,1072,0,-12996,-10,214,132
51485412,1072,0,-12996,-10,214,132
51490212,1244,-36,-13336,375,327,154
51495012,1320,108,-14136,134,202,122
51499812,840,264,-13948,-6,374,45
51504612,1016,76,-13604,111,407,28
51509512,1188,188,-13648,82,460,47
51515412,1256,120,-13752,99,194,15
51520212,1160,88,-13904,133,285,5
51525012,1196,144,-13520,27,393,4
51529812,1396,180,-14076,37,377,3
51534612,1484,132,-13396,67,332,7
51539412,1584,-4,-13784,78,315,48
51545312,1636,40,-13444,69,315,48
51550212,1668,40,-13640,53,351,69
51555012,1752,-8,-13660,56,354,100
51648410,1420,-340,-13668,73,351,33
51649910,1468,-180,-13816,39,428,80
51747510,1400,-284,-13732,70,383,39
51750210,1340,-180,-13656,97,354,33
51755112,1304,-228,-13796,110,344,52
51759912,1304,-248,-13732,109,336,63
51764812,1300,-376,-13748,86,337,35
51769612,1296,-316,-13604,58,360,63
51774412,1308,-368,-13860,67,342,86
